"Time (s)","Linear Acceleration x (m/s^2)","Linear Acceleration y (m/s^2)","Linear Acceleration z (m/s^2)"
3.331195740E1,-3.651521683E0,2.955454826E0,-3.637145996E0
3.331696287E1,-3.707984209E0,2.713975906E0,-3.556103706E0
3.332200688E1,-3.617532253E0,2.530797958E0,-3.483971834E0
3.332705083E1,-3.594816685E0,2.348324776E0,-3.434991360E0
3.333214083E1,-3.710808754E0,2.137726784E0,-3.284445047E0
3.333723083E1,-3.859955311E0,1.855957985E0,-3.257109642E0
3.334232083E1,-4.052006245E0,1.517443657E0,-3.151494026E0
3.334742042E1,-4.105516911E0,1.107913017E0,-2.866857052E0
3.335233042E1,-4.035609722E0,6.370191574E-1,-2.608184338E0
3.335733708E1,-3.918294430E0,1.860361099E-1,-2.427804947E0
3.336238063E1,-3.739470482E0,-2.689771652E-1,-2.263127804E0
3.336742417E1,-3.523147106E0,-7.232513428E-1,-2.061306000E0
3.337251417E1,-3.274072647E0,-1.128976822E0,-1.917957067E0
3.337760417E1,-3.035209894E0,-1.438402176E0,-1.746959448E0
3.338269417E1,-2.839974642E0,-1.785556793E0,-1.524458885E0
3.338779396E1,-2.679052830E0,-2.060384750E0,-1.341113091E0
3.339282490E1,-2.480954170E0,-2.320385933E0,-1.258492231E0
3.339787604E1,-2.245646954E0,-2.570333481E0,-1.119047403E0
3.340292708E1,-2.006520748E0,-2.805477142E0,-1.008889675E0
3.340797818E1,-1.744231224E0,-3.040209770E0,-9.375097156E-1
3.341301234E1,-1.487439752E0,-3.198037624E0,-7.899053097E-1
3.341806255E1,-1.355470777E0,-3.422543049E0,-6.714785099E-1
3.342311281E1,-1.214262366E0,-3.570207119E0,-5.770598054E-1
3.342816302E1,-1.049325943E0,-3.717683315E0,-4.442311525E-1
3.343307302E1,-9.519059658E-1,-3.836287022E0,-3.921717405E-1
3.343808469E1,-8.545823693E-1,-3.935579777E0,-3.354769945E-1
3.344312641E1,-6.188229322E-1,-3.986890316E0,-3.074758649E-1
3.344816818E1,-4.980589151E-1,-4.038120747E0,-3.416490555E-1
3.345323016E1,-3.296601176E-1,-4.022242069E0,-2.949970365E-1
3.345827292E1,-1.138905287E-1,-3.972795010E0,-3.062795997E-1
3.346331563E1,1.349261999E-1,-3.904149532E0,-3.039104342E-1
3.346835839E1,3.548325300E-1,-3.830683231E0,-2.737049460E-1
3.347344839E1,5.413587093E-1,-3.714110851E0,-1.922351718E-1
3.347853839E1,6.803587675E-1,-3.602365971E0,-1.309080124E-1
3.348362839E1,7.863832712E-1,-3.500255108E0,-2.734971046E-2
3.348871839E1,8.498529792E-1,-3.450845242E0,2.096201181E-1
3.349362839E1,8.418668509E-1,-3.411166668E0,3.085436821E-1
3.349864755E1,8.493215442E-1,-3.376386166E0,5.030525923E-1
3.350369026E1,7.428964376E-1,-3.365787029E0,7.226155996E-1
3.350873302E1,6.710184216E-1,-3.259891987E0,7.958096266E-1
3.351382302E1,3.182961345E-1,-3.254922390E0,9.044559002E-1
3.351891302E1,-4.937231541E-3,-3.197700977E0,9.294029474E-1
3.352400302E1,-2.510036230E-1,-3.073923588E0,8.371281624E-1
3.352909302E1,-4.774196148E-1,-3.003138542E0,7.992569208E-1
3.353400302E1,-7.230566144E-1,-2.899105072E0,7.293477058E-1
3.353902219E1,-9.590386748E-1,-2.795240402E0,6.983336210E-1
3.354406490E1,-1.076257348E0,-2.734456062E0,7.249410152E-1
3.354910766E1,-1.118410587E0,-2.697490692E0,6.940569878E-1
3.355419766E1,-1.124260664E0,-2.669911385E0,6.629604101E-1
3.355928766E1,-1.008147359E0,-2.637331009E0,7.081874609E-1
3.356437766E1,-8.082945347E-1,-2.609354019E0,7.819001675E-1
3.356946766E1,-6.396351457E-1,-2.533405304E0,8.460816145E-1
3.357437766E1,-4.346929789E-1,-2.443123817E0,9.346125126E-1
3.357939672E1,-2.650135756E-1,-2.314611435E0,9.612195492E-1
3.358443948E1,-2.210771441E-1,-2.224505424E0,9.788603783E-1
3.358948224E1,-1.973522902E-1,-2.105804443E0,1.025723696E0
3.359457224E1,-1.172129512E-1,-1.972878456E0,1.068152547E0
3.359966224E1,-7.633870840E-2,-1.777923584E0,1.053560495E0
3.360475224E1,-7.499063015E-2,-1.611789703E0,1.091591477E0
3.360984224E1,-7.874488831E-3,-1.474399567E0,1.081496000E0
3.361475224E1,5.366230011E-2,-1.279602051E0,1.113716602E0
3.361977136E1,4.687988758E-2,-1.084688187E0,1.225755692E0
3.362481406E1,8.176875114E-2,-9.087533951E-1,1.403038025E0
3.362985682E1,1.005908847E-1,-6.226100922E-1,1.559411407E0
3.363491583E1,2.279445529E-1,-2.885704041E-1,1.742684960E0
3.363995938E1,2.443363667E-1,9.805297852E-2,1.885787606E0
3.364500297E1,3.270093799E-1,5.371742249E-1,2.165806770E0
3.365004651E1,3.228978515E-1,1.023901939E0,2.425058365E0
3.365513651E1,3.090485334E-1,1.481621742E0,2.639682293E0
3.366022651E1,1.811807156E-1,1.915041924E0,2.723768234E0
3.366531651E1,-8.852458000E-2,2.391110420E0,2.959405422E0
3.367041625E1,-1.742135286E-1,2.751911163E0,3.102450848E0
3.367532625E1,-2.614059448E-1,3.155075073E0,3.264136791E0
3.368033370E1,-4.794446826E-1,3.509862900E0,3.510497570E0
3.368537698E1,-5.791301727E-1,3.715700150E0,3.636685371E0
3.369042026E1,-7.133411169E-1,3.758268356E0,3.514381409E0
3.369547760E1,-1.173763871E0,3.661786079E0,3.377665997E0
3.370052162E1,-1.501449466E0,3.503105164E0,3.307396889E0
3.370556563E1,-1.739840746E0,3.301575661E0,3.264671564E0
3.371060958E1,-1.851152778E0,2.990495682E0,3.325280666E0
3.371566485E1,-1.831216216E0,2.570102692E0,3.493752480E0
3.372070938E1,-1.766680241E0,2.155328751E0,3.837176323E0
3.372575396E1,-1.629542589E0,1.736611366E0,4.035327911E0
3.373079849E1,-1.386916399E0,1.323653221E0,4.212446213E0
3.373585203E1,-1.120951176E0,9.453783035E-1,4.473099709E0
3.374089703E1,-9.042106867E-1,5.205469131E-1,4.793301582E0
3.374594203E1,-4.933526516E-1,2.406415939E-1,5.287574291E0
3.375098703E1,-6.606006622E-2,-3.816318512E-2,5.708112717E0
3.375607703E1,6.114341021E-1,-1.630086899E-1,5.855182171E0
3.376116703E1,1.209871531E0,1.476249695E-1,5.591906548E0
3.376625953E1,1.454074383E0,1.002899170E0,4.837759972E0
3.377131083E1,1.106816053E0,2.220227242E0,3.918612719E0
3.377622672E1,7.713366151E-1,3.517022133E0,3.145375729E0
3.378127125E1,7.832517028E-1,4.625901222E0,2.902822018E0
3.378631578E1,9.318910837E-1,5.422138214E0,3.120910645E0
3.379136031E1,8.532181382E-1,5.804644585E0,3.157470942E0
3.379645031E1,7.861551046E-1,5.591210365E0,2.667287350E0
3.380154031E1,5.586367846E-1,4.997040749E0,2.036103964E0
3.380663031E1,1.230589747E-1,4.356776237E0,1.620107889E0
3.381172964E1,-3.634150326E-1,3.646050453E0,1.148712873E0
3.381671891E1,-9.069147706E-1,3.041934013E0,5.939919949E-1
3.382176865E1,-1.272570848E0,2.515480042E0,-1.576347351E-1
3.382681839E1,-1.771634340E0,2.158343315E0,-1.031605721E0
3.383186813E1,-2.542522192E0,1.851738930E0,-2.020806074E0
3.383678875E1,-3.447448730E0,1.544848442E0,-3.183764458E0
3.384183208E1,-4.208388329E0,1.242587090E0,-4.309687614E0
3.384687537E1,-4.989774227E0,9.897451401E-1,-5.429334641E0
3.385191865E1,-5.338935375E0,9.641599655E-1,-5.915740967E0
3.385700865E1,-5.419917107E0,1.098813057E0,-6.397915840E0
3.386209865E1,-5.248092175E0,1.451172829E0,-6.505264759E0
3.386718865E1,-5.034398079E0,1.929965019E0,-6.607037067E0
3.387228854E1,-5.046950340E0,2.525301933E0,-6.378279209E0
3.387719854E1,-4.961169243E0,3.189272881E0,-6.040629387E0
3.388220646E1,-4.540303707E0,3.629246712E0,-5.440988541E0
3.388724953E1,-4.005811214E0,4.050874710E0,-4.907746315E0
3.389229260E1,-3.290642023E0,4.252970695E0,-4.572198391E0
3.389735057E1,-2.135561466E0,4.268996239E0,-4.360138893E0
3.390239438E1,-1.063895583E0,4.184969902E0,-4.561565876E0
3.390743823E1,-2.879645824E-1,4.000901222E0,-4.797831535E0
3.391248208E1,3.620391488E-1,3.721691132E0,-5.045426846E0
3.391753776E1,8.633434772E-1,3.409671783E0,-5.319259167E0
3.392258224E1,1.398597479E0,3.098516464E0,-5.893543720E0
3.392762662E1,2.078161478E0,2.683189392E0,-6.358654022E0
3.393267104E1,2.687549829E0,2.273921967E0,-6.750576019E0
3.393772500E1,3.026684761E0,1.894670486E0,-6.999917984E0
3.394276990E1,3.153631210E0,1.569374084E0,-7.190636635E0
3.394781479E1,3.345584869E0,1.164132118E0,-7.133281708E0
3.395285974E1,3.740937233E0,7.268209457E-1,-6.833476067E0
3.395791224E1,3.947890759E0,3.720979691E-1,-6.411095142E0
3.396295760E1,3.957557201E0,-1.511764526E-2,-5.822239399E0
3.396800292E1,3.913433552E0,-4.253444672E-1,-5.118244171E0
3.397304818E1,3.796207428E0,-8.395509720E-1,-4.421800137E0
3.397809948E1,3.581740856E0,-1.219607353E0,-3.730782032E0
3.398314511E1,3.475574017E0,-1.532246590E0,-3.090839624E0
3.398819068E1,3.295625210E0,-1.825527191E0,-2.567043304E0
3.399323625E1,2.946557283E0,-2.018391609E0,-2.100162029E0
3.399828672E1,2.633629084E0,-2.225824356E0,-1.760525823E0
3.400333255E1,2.447299957E0,-2.400044441E0,-1.566373348E0
3.400837844E1,2.191391230E0,-2.522073746E0,-1.301715732E0
3.401342422E1,1.693750739E0,-2.601636887E0,-7.795138359E-1
3.401847401E1,1.202871442E0,-2.748848915E0,-4.725779295E-1
3.402352000E1,9.906162024E-1,-2.887034416E0,-3.326938748E-1
3.402856604E1,8.132256269E-1,-3.030579567E0,-2.310956120E-1
3.403361208E1,6.567032337E-1,-3.165095806E0,-1.829559207E-1
3.403866125E1,4.204734564E-1,-3.285696507E0,-1.364541054E-1
3.404370745E1,1.523002386E-1,-3.387513638E0,-7.786965370E-2
3.404875365E1,-8.114957809E-2,-3.479972363E0,2.055037022E-2
3.405379984E1,-2.563467026E-1,-3.582080364E0,5.767703056E-2
3.405884854E1,-4.931423664E-1,-3.641102314E0,1.572316885E-1
3.406389490E1,-6.959387064E-1,-3.680927753E0,4.286469221E-1
3.406894120E1,-8.217604756E-1,-3.730288029E0,6.566400528E-1
3.407398755E1,-9.471468329E-1,-3.746156216E0,8.700836897E-1
3.407907755E1,-9.813703299E-1,-3.800288677E0,1.035528183E0
3.408416755E1,-9.532343149E-1,-3.835274220E0,1.210643888E0
3.408925755E1,-1.005979896E0,-3.846413136E0,1.271189332E0
3.409435578E1,-1.024687052E0,-3.824169636E0,1.341585279E0
3.409926578E1,-1.100298524E0,-3.768532276E0,1.368794799E0
3.410426833E1,-1.194306493E0,-3.732231617E0,1.401211739E0
3.410931339E1,-1.225392580E0,-3.672173977E0,1.448174596E0
3.411435839E1,-1.270224094E0,-3.569231510E0,1.442559004E0
3.411944839E1,-1.419767976E0,-3.447391987E0,1.442207694E0
3.412453839E1,-1.435021996E0,-3.330546856E0,1.298818946E0
3.412962839E1,-1.368771911E0,-3.237786770E0,1.160559058E0
3.413472740E1,-1.292640209E0,-3.135631084E0,1.013030767E0
3.413975479E1,-1.182775497E0,-3.043179989E0,8.272294402E-1
3.414480682E1,-1.005868316E0,-2.946079254E0,6.703922749E-1
3.414985891E1,-8.526186943E-1,-2.901753426E0,5.137180090E-1
3.415491094E1,-6.990993619E-1,-2.824039459E0,3.140813708E-1
3.415994224E1,-4.740046263E-1,-2.770300865E0,1.097408533E-1
3.416499328E1,-2.203706503E-1,-2.740511894E0,-4.678833485E-2
3.417004422E1,3.808093071E-2,-2.715537071E0,-1.078394055E-1
3.417509521E1,1.817758083E-1,-2.671463966E0,-1.643322706E-1
3.418000521E1,3.107981682E-1,-2.699082375E0,-2.548568845E-1
3.418501521E1,4.447485209E-1,-2.755372047E0,-2.975839972E-1
3.419005755E1,6.216734648E-1,-2.730239868E0,-2.976939678E-1
3.419509990E1,8.080010414E-1,-2.657253265E0,-2.935970426E-1
3.420016005E1,9.894871712E-1,-2.593853951E0,-2.951381207E-1
3.420520333E1,1.151726604E0,-2.396549225E0,-1.349397898E-1
3.421024656E1,1.290092707E0,-2.142032623E0,5.276596546E-2
3.421528974E1,1.394869447E0,-1.835137367E0,2.535809278E-1
3.422034724E1,1.504289985E0,-1.523753166E0,4.915331006E-1
3.422539125E1,1.594335318E0,-1.203108788E0,6.902526617E-1
3.423043516E1,1.698568225E0,-9.401836395E-1,9.119960070E-1
3.423547912E1,1.745403051E0,-5.819053650E-1,1.123443365E0
3.424053443E1,1.730136752E0,-2.431888580E-1,1.286556005E0
3.424557896E1,1.724598289E0,7.597732544E-2,1.430193543E0
3.425062349E1,1.628412366E0,4.282169342E-1,1.563934803E0
3.425566797E1,1.570839763E0,7.082786560E-1,1.654282570E0
3.426072167E1,1.513521433E0,9.736642838E-1,1.758481741E0
3.426576667E1,1.408512354E0,1.248340607E0,1.823685408E0
3.427081162E1,1.379847288E0,1.494118690E0,1.844727397E0
3.427585662E1,1.341436267E0,1.701483727E0,1.873977661E0
3.428094662E1,1.384032965E0,1.951834679E0,1.911042929E0
3.428603662E1,1.397319436E0,2.187782288E0,1.941287637E0
3.429112662E1,1.495647669E0,2.371167183E0,1.983569145E0
3.429622568E1,1.759993076E0,2.497307777E0,2.076071739E0
3.430113568E1,2.079249382E0,2.499358177E0,2.229119301E0
3.430614057E1,2.553362370E0,2.324929237E0,2.332531452E0
3.431118474E1,3.105165005E0,2.050772667E0,2.386878967E0
3.431622891E1,3.562508583E0,1.801284790E0,2.345050097E0
3.432128360E1,3.940034151E0,1.595542908E0,2.345937252E0
3.432632823E1,4.228631973E0,1.380803108E0,2.442597628E0
3.433137297E1,4.481195450E0,1.228772163E0,2.673414707E0
3.433641766E1,4.726831913E0,1.105798721E0,2.943140745E0
3.434150766E1,4.918129921E0,9.734525681E-1,3.305166245E0
3.434659766E1,5.031910419E0,8.602600098E-1,3.645472050E0
3.435168766E1,5.102370262E0,7.851886749E-1,3.888045311E0
3.435678682E1,4.981918812E0,8.533325195E-1,4.166748047E0
3.436169682E1,4.642982960E0,1.040494919E0,4.333081245E0
3.436670224E1,3.951555252E0,1.490105629E0,4.267019272E0
3.437174625E1,3.166555405E0,2.178029060E0,4.034530640E0
3.437679026E1,2.412212849E0,3.061095238E0,3.476707458E0
3.438188026E1,1.860393763E0,4.148756027E0,2.473526955E0
3.438697026E1,1.439003468E0,5.340395927E0,1.421955585E0
3.439206026E1,1.286234379E0,6.224663734E0,3.745028973E-1
3.439715974E1,1.205364108E0,6.720730782E0,-5.305392742E-1
3.440218958E1,1.028929472E0,6.943899155E0,-1.202823162E0
3.440724094E1,7.996153831E-1,6.803750992E0,-1.738572717E0
3.441229235E1,5.027266741E-1,6.320006371E0,-2.148084164E0
3.441734375E1,2.239894867E-1,5.483679771E0,-2.513434410E0
3.442237698E1,-3.187549114E-2,4.395699501E0,-2.638783216E0
3.442742745E1,-4.990851879E-2,3.319455147E0,-2.639022827E0
3.443247792E1,1.318191290E-1,2.441286087E0,-2.556343555E0
3.443752839E1,2.989239693E-1,1.784544945E0,-2.494634151E0
3.444243839E1,4.623992443E-1,1.444078445E0,-2.303127289E0
3.444744958E1,5.079144239E-1,1.137198448E0,-2.105953693E0
3.445249151E1,4.173834324E-1,8.777303696E-1,-1.972489476E0
3.445753339E1,2.439851761E-1,6.700096130E-1,-1.890995026E0
3.446259479E1,2.624976635E-2,5.041608810E-1,-1.850573540E0
3.446763771E1,-1.256817579E-1,3.894739151E-1,-1.849899530E0
3.447268057E1,-3.933761120E-1,3.161907196E-1,-1.979233384E0
3.447772349E1,-7.243134379E-1,2.508134842E-1,-2.094770908E0
3.448281349E1,-8.315873742E-1,4.421405792E-1,-2.569984436E0
3.448790349E1,-1.054998755E0,6.653709412E-1,-3.190926552E0
3.449299349E1,-1.285012364E0,9.161319733E-1,-3.730009794E0
3.449808349E1,-1.550943017E0,1.333544731E0,-4.232821465E0
3.450312610E1,-1.844035029E0,1.807904243E0,-4.644777775E0
3.450817677E1,-2.150758266E0,2.219897270E0,-4.948491573E0
3.451322745E1,-2.486153126E0,2.565093040E0,-5.021461010E0
3.451827807E1,-2.774248600E0,2.728958130E0,-4.936788559E0
3.452331344E1,-3.116036177E0,2.802646637E0,-4.809822559E0
3.452836333E1,-3.377593279E0,2.642759323E0,-4.587964058E0
3.453341323E1,-3.630739450E0,2.416943550E0,-4.257058144E0
3.453846313E1,-3.750968456E0,2.077351570E0,-3.950565338E0
3.454350083E1,-3.876933813E0,1.810544014E0,-3.538799286E0
3.454855011E1,-3.917095184E0,1.515831947E0,-3.054612637E0
3.455359938E1,-4.038343906E0,1.150035858E0,-2.784075260E0
3.455864865E1,-4.168733597E0,7.466630936E-1,-2.324716330E0
3.456368813E1,-4.270068169E0,3.391828537E-1,-1.991717815E0
3.456873693E1,-4.328103065E0,-5.333900452E-2,-1.655056715E0
3.457378573E1,-4.257068634E0,-4.596443176E-1,-1.424155712E0
3.457883453E1,-4.081227303E0,-9.371385574E-1,-1.207508445E0
3.458387542E1,-3.882105827E0,-1.414007187E0,-1.052766919E0
3.458892380E1,-3.678861618E0,-1.813737869E0,-8.689950705E-1
3.459397219E1,-3.481057167E0,-2.179489136E0,-6.943303943E-1
3.459902063E1,-3.260164738E0,-2.516106606E0,-6.097788811E-1
3.460406276E1,-3.040132523E0,-2.833198547E0,-5.865148306E-1
3.460911083E1,-2.768253326E0,-3.102055550E0,-6.249231100E-1
3.461415891E1,-2.434945107E0,-3.313157558E0,-6.581994891E-1
3.461920698E1,-2.126360893E0,-3.433066845E0,-6.962227821E-1
3.462425010E1,-1.837671638E0,-3.543188572E0,-6.530096531E-1
3.462929792E1,-1.578369856E0,-3.629211903E0,-5.715385675E-1
3.463434573E1,-1.257523298E0,-3.667272091E0,-5.187289715E-1
3.463939354E1,-1.023289442E0,-3.719642162E0,-5.278295279E-1
3.464443734E1,-8.275884390E-1,-3.752871990E0,-5.315952301E-1
3.464948495E1,-6.609050035E-1,-3.771790981E0,-4.771717787E-1
3.465453260E1,-4.944614172E-1,-3.723844051E0,-4.218152165E-1
3.465958021E1,-3.474997282E-1,-3.690400600E0,-3.990634084E-1
3.466462464E1,-2.200391889E-1,-3.633204937E0,-4.134560227E-1
3.466967214E1,-7.377326488E-2,-3.585733891E0,-4.508787990E-1
3.467471958E1,3.867220879E-2,-3.504916668E0,-4.444953799E-1
3.467976708E1,1.506419182E-1,-3.457696438E0,-5.046422482E-1
3.468481193E1,3.388593793E-1,-3.410550594E0,-4.496790767E-1
3.468985927E1,4.407875538E-1,-3.334776402E0,-4.234142900E-1
3.469490662E1,6.335573196E-1,-3.187360287E0,-4.020006061E-1
3.469995396E1,8.841153383E-1,-3.092744350E0,-3.044169545E-1
3.470496005E1,9.249975085E-1,-2.988718987E0,-2.408357859E-1
3.471000537E1,1.091270447E0,-2.894431114E0,-1.346436739E-1
3.471505063E1,1.167512774E0,-2.819425583E0,-6.721341610E-2
3.472009589E1,1.187468648E0,-2.677575111E0,5.695807934E-2
3.472518646E1,1.280562282E0,-2.435483932E0,2.137449980E-1
3.473023401E1,1.321974993E0,-2.236788750E0,5.041173697E-1
3.473528156E1,1.301996231E0,-2.057533264E0,7.272831202E-1
3.474032912E1,1.258666873E0,-1.897724152E0,8.454997540E-1
3.474537375E1,1.144049287E0,-1.809951782E0,9.451348782E-1
3.475042120E1,9.867743254E-1,-1.755905151E0,1.045712233E0
3.475546860E1,8.009923100E-1,-1.788148880E0,1.042163014E0
3.476051599E1,6.104225516E-1,-1.920883179E0,1.034891129E0
3.476556104E1,4.721139669E-1,-2.020037651E0,1.076405406E0
3.477060833E1,2.037299871E-1,-2.114349365E0,1.066478372E0
3.477565563E1,-4.653865099E-2,-2.304210663E0,1.076667905E0
3.478070287E1,-2.165839672E-1,-2.445980072E0,1.058768868E0
3.478574833E1,-4.213578701E-1,-2.467988968E0,1.122862816E0
3.479079552E1,-6.129730344E-1,-2.466029167E0,1.153981209E0
3.479584276E1,-6.623989344E-1,-2.401852608E0,1.228559852E0
3.480088995E1,-7.420316935E-1,-2.246832848E0,1.293881536E0
3.480593563E1,-8.805189133E-1,-2.091935158E0,1.411988854E0
3.481098276E1,-9.154739380E-1,-1.937170982E0,1.606953621E0
3.481602990E1,-9.330389500E-1,-1.768195152E0,1.672997355E0
3.482107698E1,-9.046750665E-1,-1.632776260E0,1.767621160E0
3.482612287E1,-8.541164398E-1,-1.468652725E0,1.861638427E0
3.483116995E1,-7.715129852E-1,-1.280612946E0,1.978599906E0
3.483621698E1,-7.045874596E-1,-1.035148621E0,2.113154411E0
3.484126401E1,-6.965913177E-1,-7.896575928E-1,2.193215370E0
3.484631016E1,-5.896638036E-1,-5.727558136E-1,2.280492783E0
3.485135719E1,-3.553490937E-1,-3.078203201E-1,2.412823677E0
3.485640417E1,-1.271835566E-1,-7.144355774E-2,2.604415894E0
3.486145120E1,5.219495296E-2,1.746091843E-1,2.812449455E0
3.486649750E1,2.068364620E-1,4.541435242E-1,3.008929968E0
3.487154443E1,3.990996480E-1,7.144136429E-1,3.137154341E0
3.487659141E1,6.292567253E-1,1.031846046E0,3.236168146E0
3.488163839E1,8.214632869E-1,1.382286072E0,3.287686825E0
3.488668474E1,9.668796062E-1,1.789399147E0,3.230609179E0
3.489173167E1,9.707926512E-1,2.142919540E0,3.061085224E0
3.489677860E1,7.525228262E-1,2.399799347E0,2.659861088E0
3.490182557E1,4.939522147E-1,2.498064041E0,2.179732323E0
3.490687203E1,3.098661900E-1,2.438105583E0,1.748615265E0
3.491191896E1,3.301888704E-2,2.373394012E0,1.355178952E0
3.491696583E1,-2.220974565E-1,2.289913177E0,1.207879066E0
3.492201276E1,-2.933908105E-1,2.264548302E0,1.299702406E0
3.492705932E1,-1.669375300E-1,2.168375015E0,1.466216087E0
3.493210620E1,-1.012293100E-1,2.035252571E0,1.700947285E0
3.493715313E1,6.174373627E-2,1.870273590E0,2.146069050E0
3.494220000E1,2.550435066E-1,1.678449631E0,2.599949837E0
3.494724656E1,3.398229480E-1,1.421713829E0,3.354356289E0
3.495229344E1,5.069980025E-1,1.028384209E0,4.439027786E0
3.495734031E1,5.358698368E-1,5.892105103E-1,5.540699959E0
3.496238719E1,6.118864417E-1,2.091026306E-1,6.466296196E0
3.496743386E1,9.392520189E-1,-7.902336121E-2,7.075756073E0
3.497248073E1,1.273804545E0,-7.020092010E-2,7.271579742E0
3.497752755E1,1.382935643E0,2.202014923E-1,6.855481625E0
3.498257443E1,1.068093896E0,9.730405807E-1,5.872428894E0
3.498762110E1,5.507997870E-1,1.895948410E0,4.595170975E0
3.499266792E1,3.291473389E-1,2.888606071E0,3.897359133E0
3.499771479E1,1.587949991E-1,3.802463531E0,3.807626963E0
3.500276167E1,5.303812027E-2,4.412117958E0,3.725583792E0
3.500780839E1,-8.034551144E-2,4.841439247E0,3.295910358E0
3.501285521E1,-5.145243406E-1,4.822280884E0,2.497123241E0
3.501790208E1,-8.135561347E-1,4.512663841E0,1.679967642E0
3.502294891E1,-1.196538448E0,4.056121826E0,9.316294193E-1
3.502799563E1,-1.461542726E0,3.610742569E0,1.945850849E-1
3.503304245E1,-1.459591627E0,3.329883575E0,-5.462114811E-1
3.503808927E1,-1.883286953E0,3.233068466E0,-1.349691868E0
3.504313615E1,-2.655018568E0,3.191766739E0,-2.198899269E0
3.504818287E1,-3.804215670E0,2.977377892E0,-3.072839737E0
3.505322969E1,-5.203787804E0,2.677352905E0,-4.219329834E0
3.505827651E1,-6.258878708E0,2.436388969E0,-5.470503807E0
3.506332333E1,-6.891624451E0,2.188348770E0,-6.041884422E0
3.506837016E1,-7.047959805E0,2.072309494E0,-6.449228287E0
3.507341698E1,-6.778321743E0,2.016398430E0,-6.450706482E0
3.507846380E1,-6.165569305E0,2.135067940E0,-6.233704567E0
3.508351063E1,-5.392193794E0,2.312946320E0,-5.792974472E0
3.508855745E1,-4.645065308E0,2.492084503E0,-5.346826077E0
3.509360427E1,-3.818597078E0,2.772443771E0,-4.849758148E0
3.509865110E1,-3.141326189E0,3.182151794E0,-4.528621674E0
3.510369792E1,-2.434695244E0,3.663290977E0,-4.260960579E0
3.510874469E1,-1.860088110E0,4.182034492E0,-4.011044025E0
3.511379151E1,-1.502273798E0,4.637728691E0,-4.197963238E0
3.511883833E1,-1.116316319E0,4.996965408E0,-4.629125595E0
3.512388516E1,-6.966114044E-1,5.116593361E0,-5.089742661E0
3.512893193E1,-1.943663657E-1,4.992347717E0,-5.547336578E0
3.513397875E1,3.911081553E-1,4.663063049E0,-5.922225475E0
3.513902557E1,1.046516657E0,4.148363113E0,-6.249796391E0
3.514407240E1,1.710816860E0,3.515569687E0,-6.426362038E0
3.514911922E1,2.347103119E0,2.932290077E0,-6.568364620E0
3.515416604E1,2.956677914E0,2.355448723E0,-6.729866028E0
3.515921287E1,3.339837790E0,1.842412949E0,-6.625221729E0
3.516425969E1,3.602374554E0,1.354788780E0,-6.269744873E0
3.516930651E1,3.973768234E0,7.250232697E-1,-5.821022987E0
3.517435333E1,4.047677517E0,1.587677002E-1,-5.307169437E0
3.517940016E1,4.072863579E0,-3.633432388E-1,-4.650601387E0
3.518444698E1,4.058937073E0,-8.368110657E-1,-4.012395859E0
3.518949375E1,3.929516792E0,-1.266685486E0,-3.611030579E0
3.519454057E1,3.923186779E0,-1.629176140E0,-3.153646946E0
3.519958740E1,3.843931675E0,-1.943660736E0,-2.586663961E0
3.520463422E1,3.692185402E0,-2.162589073E0,-2.023710966E0
3.520968099E1,3.477265358E0,-2.286237717E0,-1.539934039E0
3.521472781E1,3.222517490E0,-2.372223854E0,-1.114853859E0
3.521977464E1,2.908620834E0,-2.540238380E0,-7.285073400E-1
3.522482141E1,2.516025782E0,-2.747137070E0,-5.288023949E-1
3.522973141E1,2.121356249E0,-2.944983482E0,-4.825668335E-1
3.523475063E1,1.728976250E0,-3.061964989E0,-3.986214399E-1
3.523978964E1,1.563727379E0,-3.141106606E0,-3.975617886E-1
3.524482865E1,1.352964044E0,-3.225429058E0,-3.986943960E-1
3.524989865E1,1.053902268E0,-3.271839619E0,-4.215991497E-1
3.525493922E1,7.094933987E-1,-3.375895977E0,-3.332951069E-1
3.525997979E1,1.999908686E-1,-3.393983364E0,-6.248348951E-2
3.526502037E1,-5.806057453E-1,-3.354821682E0,1.996217966E-1
3.527011037E1,-1.178568721E0,-3.363650799E0,2.671548128E-1
3.527520037E1,-1.417810678E0,-3.353330135E0,1.733670235E-1
3.528029037E1,-1.609670162E0,-3.371641636E0,7.094538212E-2
3.528538037E1,-1.725067258E0,-3.341996670E0,1.167845726E-2
3.529029037E1,-1.850129247E0,-3.230866909E0,9.468889236E-2
3.529531448E1,-1.965224028E0,-3.115064621E0,1.443370581E-1
3.530035578E1,-2.075212955E0,-2.999338150E0,1.985520124E-1
3.530539708E1,-2.118221760E0,-2.912362099E0,2.143982053E-1
3.531046021E1,-2.065212250E0,-2.825434685E0,2.156461477E-1
3.531550266E1,-2.088175058E0,-2.733789444E0,2.117265463E-1
3.532054505E1,-2.101017237E0,-2.656548500E0,2.025383115E-1
3.532558750E1,-2.032044888E0,-2.636718750E0,2.261618972E-1
3.533067750E1,-2.010349274E0,-2.578602791E0,2.395847440E-1
3.533576750E1,-1.969132185E0,-2.515673637E0,2.566614747E-1
3.534085750E1,-1.870501518E0,-2.553102493E0,2.005420327E-1
3.534594750E1,-1.647693396E0,-2.590316772E0,2.767281532E-1
3.535085750E1,-1.434933424E0,-2.636837006E0,3.409022093E-1
3.535587724E1,-1.212360620E0,-2.659310341E0,3.893284798E-1
3.536091979E1,-9.802111387E-1,-2.648159981E0,4.598157406E-1
3.536596234E1,-7.289678454E-1,-2.651261330E0,4.567568302E-1
3.537102182E1,-4.106652737E-1,-2.711674690E0,4.571293592E-1
3.537606521E1,-1.115175486E-1,-2.767166138E0,4.610270262E-1
3.538110860E1,8.731830120E-2,-2.812983513E0,4.352142811E-1
3.538615198E1,3.149044514E-1,-2.834792137E0,4.086493850E-1
3.539124198E1,4.708320498E-1,-2.789597511E0,3.672449589E-1
3.539633198E1,6.458359361E-1,-2.706164360E0,3.684421182E-1
3.540142198E1,7.728419900E-1,-2.551055908E0,4.647794366E-1
3.540652177E1,8.663277626E-1,-2.391324997E0,4.840444326E-1
3.541155313E1,9.403616190E-1,-2.212597847E0,5.170323253E-1
3.541660412E1,1.028606057E0,-2.000559807E0,6.114475131E-1
3.542165510E1,1.102226734E0,-1.769590378E0,7.241231203E-1
3.542670610E1,1.175456524E0,-1.510129929E0,8.261654973E-1
3.543174047E1,1.233757019E0,-1.308280945E0,9.509438872E-1
3.543679063E1,1.310596943E0,-1.087450027E0,1.098380804E0
3.544184078E1,1.358021021E0,-8.715591431E-1,1.220480442E0
3.544689094E1,1.457149029E0,-6.797227859E-1,1.307767510E0
3.545180094E1,1.621959925E0,-5.597124100E-1,1.518037558E0
3.545681276E1,1.728863955E0,-4.110670090E-1,1.717307687E0
3.546185443E1,1.763441801E0,-2.720804214E-1,1.872311592E0
3.546689610E1,1.869257689E0,-1.475276947E-1,2.026219130E0
3.547198610E1,1.946084261E0,-2.307224274E-2,2.203172684E0
3.547707610E1,1.970217228E0,1.060247421E-1,2.327228069E0
3.548216610E1,1.941961527E0,2.732076645E-1,2.336462021E0
3.548725610E1,1.837254643E0,4.114809036E-1,2.417694330E0
3.549216610E1,1.761048555E0,5.543556213E-1,2.365557671E0
3.549718760E1,1.627648115E0,7.400684357E-1,2.246985435E0
3.550222964E1,1.441524148E0,9.111900330E-1,2.062222958E0
3.550727167E1,1.346059084E0,1.024713516E0,1.902062774E0
3.551233266E1,1.312306881E0,1.142875671E0,1.781029463E0
3.551737563E1,1.306594491E0,1.251314163E0,1.751894951E0
3.552241865E1,1.452929854E0,1.402646065E0,1.723936558E0
3.552750865E1,1.684054971E0,1.501162529E0,1.659089565E0
3.553259865E1,1.990070820E0,1.609121323E0,1.648103237E0
3.553768865E1,2.313461781E0,1.673920631E0,1.762416959E0
3.554275969E1,2.601397991E0,1.714757919E0,1.882299900E0
3.554781740E1,2.844249725E0,1.765173912E0,1.964298010E0
3.555286568E1,3.061126947E0,1.739095688E0,2.199531078E0
3.555791396E1,3.118145943E0,1.756207466E0,2.300459385E0
3.556296229E1,3.282704830E0,1.706531525E0,2.348123789E0
3.556800453E1,3.640918255E0,1.580635071E0,2.490068436E0
3.557305250E1,3.834336519E0,1.416882515E0,2.711335897E0
3.557810047E1,3.978520155E0,1.416181564E0,2.934897900E0
3.558314849E1,4.016276836E0,1.635730743E0,3.098382473E0
3.558819188E1,3.991250038E0,1.917409897E0,3.091931820E0
3.559323969E1,3.827437878E0,2.495444298E0,2.911158085E0
3.559828745E1,3.472733021E0,3.340715408E0,2.456410646E0
3.560333516E1,2.927575111E0,4.333283424E0,1.828878641E0
3.560837922E1,2.507820368E0,5.229031563E0,1.187059641E0
3.561342682E1,2.174736500E0,5.707653999E0,6.748332977E-1
3.561847438E1,1.966127157E0,5.760098457E0,1.873036027E-1
3.562352193E1,1.814860582E0,5.425157547E0,-2.994478941E-1
3.562856646E1,1.735678434E0,4.751112938E0,-6.756080389E-1
3.563361391E1,1.628644347E0,3.881858826E0,-1.008876204E0
3.563866136E1,1.508767605E0,3.051969528E0,-1.299952030E0
3.564370875E1,1.375889063E0,2.294919014E0,-1.467921615E0
3.564875375E1,1.115198493E0,1.615447998E0,-1.499099612E0
3.565380104E1,9.180505872E-1,1.080358505E0,-1.445447326E0
3.565884828E1,6.984030008E-1,6.750125885E-1,-1.339392424E0
3.566389563E1,4.425821900E-1,3.655633926E-1,-1.231991529E0
3.566894099E1,1.747912169E-1,3.764677048E-1,-1.231478810E0
3.567398823E1,-1.572751403E-1,6.162996292E-1,-1.279106259E0
3.567903542E1,-5.054304600E-1,1.008135796E0,-1.378765345E0
3.568408260E1,-7.025224566E-1,1.379578590E0,-1.510640979E0
3.568912823E1,-9.153473377E-1,1.749701500E0,-1.621914864E0
3.569417537E1,-1.139101744E0,2.209378242E0,-1.707659960E0
3.569922250E1,-1.417106390E0,2.552952766E0,-1.801775217E0
3.570426958E1,-1.845387220E0,2.718518257E0,-1.971594572E0
3.570931552E1,-2.247942924E0,2.826084137E0,-2.165241241E0
3.571436261E1,-2.602216244E0,2.928592682E0,-2.484367847E0
3.571940964E1,-2.899741173E0,2.959337234E0,-2.796487331E0
3.572445672E1,-3.016932487E0,2.904263496E0,-3.132122993E0
3.572936672E1,-3.026403427E0,2.859337807E0,-3.436307907E0
3.573430333E1,-3.004184723E0,2.776647568E0,-3.685305119E0
3.573933870E1,-2.960073948E0,2.747142792E0,-3.880055904E0
3.574437401E1,-2.913295269E0,2.603406906E0,-3.978713751E0
3.574946401E1,-2.806116104E0,2.422063828E0,-4.015346050E0
3.575455401E1,-2.633835793E0,2.250973701E0,-4.033450603E0
3.575964401E1,-2.477291107E0,2.080497742E0,-3.889639616E0
3.576473401E1,-2.374189377E0,1.834038734E0,-3.731976509E0
3.576972057E1,-2.257197618E0,1.655077934E0,-3.353727579E0
3.577476016E1,-2.207104683E0,1.466917992E0,-2.907167912E0
3.577979979E1,-2.141986370E0,1.264682770E0,-2.510641098E0
3.578483938E1,-2.123767376E0,9.956989288E-1,-2.186745167E0
3.578992938E1,-2.132906914E0,6.599779129E-1,-1.991900921E0
3.579501938E1,-2.193240643E0,3.197231293E-1,-1.872448444E0
3.580010938E1,-2.209214687E0,-7.287693024E-2,-1.780374527E0
3.580519938E1,-2.219232082E0,-4.555835724E-1,-1.739482164E0
3.581010938E1,-2.238152266E0,-8.618431091E-1,-1.663762689E0
3.581513568E1,-2.237312078E0,-1.181584358E0,-1.668747187E0
3.582017641E1,-2.174177885E0,-1.390951157E0,-1.716424942E0
3.582521714E1,-2.115613699E0,-1.628756523E0,-1.668456078E0
3.583028203E1,-1.994866371E0,-1.875788689E0,-1.669056416E0
3.583532401E1,-1.893534184E0,-2.132015228E0,-1.670439720E0
3.584036594E1,-1.773102999E0,-2.320889473E0,-1.601396680E0
3.584540787E1,-1.600102425E0,-2.519002914E0,-1.529196262E0
3.585046912E1,-1.474963665E0,-2.688083649E0,-1.420372248E0
3.585551203E1,-1.292231202E0,-2.799492836E0,-1.284342051E0
3.586055495E1,-1.090078831E0,-2.925054550E0,-1.140095234E0
3.586559787E1,-9.256389141E-1,-3.045660973E0,-9.584721327E-1
3.587068787E1,-7.747947574E-1,-3.142226219E0,-8.107117414E-1
3.587577787E1,-6.183686852E-1,-3.205247879E0,-6.484194398E-1
3.588086787E1,-4.513341486E-1,-3.210886955E0,-5.812611580E-1
3.588595787E1,-4.124130905E-1,-3.235723972E0,-5.375161767E-1
3.589100037E1,-3.772788942E-1,-3.279721737E0,-5.506209135E-1
3.589605104E1,-2.933351398E-1,-3.295017719E0,-5.536855459E-1
3.590110177E1,-2.275331914E-1,-3.262502193E0,-5.278241038E-1
3.590615240E1,-1.940840185E-1,-3.296986103E0,-6.217495799E-1
3.591118771E1,-8.338773251E-2,-3.264430523E0,-5.821226835E-1
3.591623766E1,5.208206177E-2,-3.222291470E0,-5.098546147E-1
3.592128755E1,1.356703639E-1,-3.089262009E0,-4.863593578E-1
3.592633745E1,2.103798389E-1,-2.961072922E0,-4.783539176E-1
3.593124745E1,2.943328023E-1,-2.818536758E0,-4.333268106E-1
3.593625979E1,4.793988168E-1,-2.790760994E0,-2.852407098E-1
3.594130125E1,7.129335999E-1,-2.705452919E0,-1.390373707E-1
3.594634271E1,5.933587551E-1,-2.600969315E0,-3.732913733E-2
3.595140542E1,5.797737837E-1,-2.563414574E0,2.641516924E-1
3.595644797E1,6.288488507E-1,-2.554497719E0,4.264101386E-1
3.596149047E1,5.113278627E-1,-2.612474442E0,5.647517443E-1
3.596653302E1,3.325409889E-1,-2.718161583E0,6.222420335E-1
3.597162302E1,4.449820518E-2,-2.828472137E0,6.279327273E-1
3.597671302E1,-1.384405643E-1,-2.924272537E0,7.159615159E-1
3.598180302E1,-3.410996199E-1,-2.981731415E0,7.577251196E-1
3.598689302E1,-5.304298401E-1,-3.048746109E0,7.725539207E-1
3.599181912E1,-7.792877555E-1,-3.101461411E0,7.849887609E-1
3.599686365E1,-1.000885129E0,-3.182891369E0,7.703738213E-1
3.600190818E1,-1.191392779E0,-3.226078510E0,7.958800197E-1
3.600695276E1,-1.303299904E0,-3.231102467E0,8.615466952E-1
3.601196714E1,-1.336696625E0,-3.178879261E0,8.953850865E-1
3.601701021E1,-1.286545515E0,-3.098161697E0,1.050213814E0
3.602205323E1,-1.167272329E0,-2.965106010E0,1.206542492E0
3.602709620E1,-1.055272937E0,-2.779788971E0,1.297459841E0
3.603218620E1,-9.120727181E-1,-2.604430199E0,1.404163241E0
3.603727620E1,-7.565639019E-1,-2.429453850E0,1.531400204E0
3.604236620E1,-5.932074189E-1,-2.254843712E0,1.621648431E0
3.604746620E1,-3.739922345E-1,-2.080573082E0,1.693830013E0
3.605237620E1,-1.800091267E-1,-1.901782036E0,1.680275679E0
3.605738458E1,-3.961814940E-2,-1.670642853E0,1.738827109E0
3.606242745E1,5.679734051E-2,-1.463671684E0,1.773069382E0
3.606747042E1,2.050126195E-1,-1.232975006E0,1.859129667E0
3.607252875E1,3.430744112E-1,-9.881229401E-1,1.877141476E0
3.607757245E1,4.757726789E-1,-7.864799500E-1,1.931950092E0
3.608261615E1,5.124217868E-1,-5.036268234E-1,2.042396545E0
3.608765985E1,4.771753550E-1,-2.305212021E-1,2.141353369E0
3.609271594E1,5.133550763E-1,-3.887176514E-2,2.185635567E0
3.609776031E1,5.875092745E-1,1.288299561E-1,2.313848019E0
3.610280464E1,6.183454990E-1,3.921918869E-1,2.420513153E0
3.610784896E1,5.630474091E-1,6.363286972E-1,2.505604267E0
3.611290313E1,6.607356071E-1,8.373651505E-1,2.588204861E0
3.611794792E1,6.819826365E-1,1.033620834E0,2.711396217E0
3.612299276E1,7.750689983E-1,1.229885101E0,2.827389002E0
3.612803760E1,9.162130952E-1,1.473981857E0,2.926731825E0
3.613312760E1,1.053188682E0,1.722805023E0,3.033504248E0
3.613821760E1,1.172137260E0,1.928467751E0,3.095716000E0
3.614330761E1,1.168207884E0,2.105318069E0,3.013520241E0
3.614840662E1,9.702575207E-1,2.291623116E0,2.806506157E0
3.615343448E1,6.982367039E-1,2.372589111E0,2.594422817E0
3.615848636E1,5.289684534E-1,2.329298019E0,2.486658573E0
3.616353828E1,4.337967336E-1,2.171504974E0,2.468530655E0
3.616859021E1,2.646924555E-1,1.966304779E0,2.640472889E0
3.617362182E1,7.878544182E-2,1.761545181E0,2.916601181E0
3.617867271E1,4.770751111E-3,1.533354759E0,3.157899857E0
3.618372360E1,-1.444835365E-1,1.286555290E0,3.493595123E0
3.618877448E1,-1.924855411E-1,1.069056511E0,3.770169735E0
3.619368448E1,-1.498902589E-1,9.429502487E-1,4.069410801E0
3.619869469E1,-8.332841098E-2,8.414821625E-1,4.370089531E0
3.620373693E1,4.498507455E-2,7.407274246E-1,4.667510033E0
3.620877917E1,1.917278767E-1,6.693668365E-1,4.904610634E0
3.621383953E1,5.435706973E-1,7.804584503E-1,4.928287983E0
3.621888271E1,1.024420857E0,1.092940331E0,4.757988930E0
3.622392589E1,1.311165571E0,1.740570068E0,4.403313160E0
3.622896901E1,1.166615605E0,2.541244507E0,3.922050953E0
3.623402672E1,9.072489142E-1,3.585683823E0,3.285820246E0
3.623907057E1,7.577187419E-1,4.548218727E0,3.189465523E0
3.624411448E1,8.036831021E-1,5.294620514E0,3.247397423E0
3.624915833E1,7.292640805E-1,5.881841660E0,3.348263502E0
3.625421386E1,5.004357100E-1,6.084542274E0,3.189417839E0
3.625925828E1,3.027650118E-1,5.495902061E0,2.774480581E0
3.626430281E1,1.935384125E-1,4.403224945E0,2.436348677E0
3.626934724E1,5.524367094E-3,3.256122589E0,2.187027931E0
3.627440104E1,-5.248324275E-1,2.264760971E0,1.645449638E0
3.627944599E1,-1.116727352E0,1.443428993E0,9.024062157E-1
3.628449094E1,-1.655532360E0,7.063665390E-1,1.238754988E-1
3.628953583E1,-2.173870087E0,1.452255249E-1,-9.177461267E-1
3.629458818E1,-2.699566841E0,-3.204307556E-1,-2.163859606E0
3.629963349E1,-3.055842400E0,-7.612380981E-1,-3.375854969E0
3.630467886E1,-3.391238928E0,-9.084386826E-1,-4.511047363E0
3.630972417E1,-4.027567863E0,-5.514059067E-1,-5.392179012E0
3.631481417E1,-4.985594749E0,9.875106812E-2,-5.490457535E0
3.631990417E1,-5.795334816E0,8.499250412E-1,-5.338589668E0
3.632499417E1,-6.259617805E0,1.591296196E0,-5.031839371E0
3.633009292E1,-6.591430187E0,2.331787109E0,-4.626384258E0
3.633500292E1,-6.735446930E0,2.994439125E0,-4.298971176E0
3.634000724E1,-6.687052727E0,3.583462715E0,-4.092933655E0
3.634505156E1,-6.375287056E0,3.959992409E0,-4.183518887E0
3.635009594E1,-5.684657574E0,4.248684883E0,-4.210625648E0
3.635515000E1,-4.790053368E0,4.464183807E0,-4.124789238E0
3.636019484E1,-3.999732733E0,4.559005737E0,-3.996053219E0
3.636523974E1,-3.378528357E0,4.600535393E0,-4.091457367E0
3.637028458E1,-2.781546116E0,4.455191612E0,-4.257336140E0
3.637533719E1,-2.174293518E0,4.090044022E0,-4.656749249E0
3.638038245E1,-1.780377626E0,3.563110352E0,-5.051533222E0
3.638542771E1,-1.264595270E0,2.994384766E0,-5.677318573E0
3.639047297E1,-6.027710438E-1,2.441579819E0,-6.201324940E0
3.639556297E1,-1.101210117E-1,1.900043488E0,-6.625088692E0
3.640065297E1,3.483142853E-1,1.489469528E0,-6.979793072E0
3.640574297E1,9.068544507E-1,1.128412247E0,-7.262639523E0
3.641084172E1,1.446442723E0,8.598041534E-1,-7.250341415E0
3.641575172E1,1.841008306E0,5.831050873E-1,-6.931613445E0
3.642075610E1,2.230834961E0,3.362417221E-1,-6.566892624E0
3.642580047E1,2.669668436E0,1.717090607E-1,-6.089742184E0
3.643084484E1,3.058083057E0,-6.851959229E-2,-5.476421356E0
3.643589896E1,3.439694881E0,-3.940315247E-1,-4.711912155E0
3.644094380E1,3.524024487E0,-6.900558472E-1,-4.005916119E0
3.644598865E1,3.474407673E0,-8.945684433E-1,-3.472043037E0
3.645103349E1,3.267137527E0,-1.055599213E0,-2.936990738E0
3.645612349E1,2.992886066E0,-1.249792099E0,-2.447608709E0
3.646121349E1,2.685224533E0,-1.501077652E0,-2.161174536E0
3.646630599E1,2.434795618E0,-1.708998680E0,-1.890861630E0
3.647135719E1,2.102782965E0,-1.911907196E0,-1.698804617E0
3.647643026E1,1.712474108E0,-2.114604950E0,-1.504042268E0
3.648148250E1,1.340090513E0,-2.331453323E0,-1.306965590E0
3.648653479E1,9.515125751E-1,-2.428524971E0,-9.786685109E-1
3.649158703E1,6.705600023E-1,-2.558997154E0,-7.250605822E-1
3.649649703E1,4.490767121E-1,-2.727606773E0,-5.221075416E-1
3.650150417E1,2.288076282E-1,-2.900800705E0,-3.366510570E-1
3.650654755E1,4.313930869E-2,-3.092908859E0,-7.279910892E-2
3.651159089E1,-1.512327194E-1,-3.208246231E0,2.363757938E-1
3.651664797E1,-2.830260992E-1,-3.328184605E0,5.674214959E-1
3.652169203E1,-4.483669400E-1,-3.457480907E0,8.203808069E-1
3.652673604E1,-4.177888930E-1,-3.529160976E0,1.048680663E0
3.653178010E1,-3.204508722E-1,-3.610264301E0,1.357973218E0
3.653683516E1,-3.090660572E-1,-3.657763004E0,1.591086268E0
3.654187974E1,-3.593011498E-1,-3.652595043E0,1.748690724E0
3.654692438E1,-4.282982349E-1,-3.613966465E0,1.975017786E0
3.655196896E1,-4.206304550E-1,-3.594536304E0,2.112776041E0
3.655702229E1,-2.407395244E-1,-3.575172901E0,2.215080976E0
3.656206734E1,-4.130631685E-2,-3.565483570E0,2.239228249E0
3.656711240E1,4.437798262E-2,-3.522454739E0,2.218874216E0
3.657215745E1,4.085785151E-2,-3.460505009E0,2.206672668E0
3.657720948E1,1.005962491E-2,-3.460947514E0,2.116567612E0
3.658225490E1,1.432268322E-1,-3.466299534E0,2.024674654E0
3.658730026E1,2.633677721E-1,-3.462205410E0,1.849430442E0
3.659234568E1,3.323529363E-1,-3.496489048E0,1.724358797E0
3.659743568E1,3.886520565E-1,-3.439975262E0,1.601465821E0
3.660252568E1,3.558402359E-1,-3.369284153E0,1.509092093E0
3.660761568E1,3.389264643E-1,-3.346580029E0,1.385012150E0
3.661271443E1,3.520408571E-1,-3.338303089E0,1.224344373E0
3.661766245E1,3.804839551E-1,-3.320487499E0,1.083713174E0
3.662271078E1,3.433606923E-1,-3.254907131E0,9.544636011E-1
3.662775912E1,3.550584018E-1,-3.203754902E0,8.073190451E-1
3.663280745E1,3.053562045E-1,-3.085689545E0,6.418341398E-1
3.663777136E1,3.850291073E-1,-2.972497940E0,4.670701921E-1
3.664281542E1,4.507132769E-1,-2.825923920E0,3.167357445E-1
3.664785953E1,4.924347103E-1,-2.698595047E0,9.896040708E-2
3.665290365E1,5.340269804E-1,-2.523533821E0,1.869639196E-2
3.665799365E1,6.520231962E-1,-2.358201027E0,2.734105289E-2
3.666308365E1,7.744163871E-1,-2.183465004E0,5.230279267E-2
3.666817365E1,8.295711875E-1,-2.004136086E0,1.507435888E-1
3.667327307E1,9.272716045E-1,-1.805877686E0,3.752023578E-1
3.667818307E1,1.071510077E0,-1.603051186E0,6.105338335E-1
3.668318953E1,1.214976549E0,-1.419594765E0,8.478860855E-1
3.668823313E1,1.381482840E0,-1.212444305E0,1.120731592E0
3.669327677E1,1.570860386E0,-1.024667740E0,1.314588547E0
3.669833302E1,1.702005506E0,-8.036384583E-1,1.520836115E0
3.670337729E1,1.841895580E0,-5.254821777E-1,1.715823293E0
3.670842156E1,2.004880905E0,-2.046127319E-1,1.971661568E0
3.671346578E1,2.138582706E0,1.302156448E-1,2.112007380E0
3.671852021E1,2.243203163E0,4.502906799E-1,2.175869703E0
3.672356495E1,2.338087559E0,7.460651398E-1,2.278642178E0
3.672860974E1,2.294400692E0,1.074950218E0,2.320445061E0
3.673365448E1,1.940310955E0,1.389077187E0,2.096371651E0
3.673870740E1,1.644262433E0,1.669337273E0,1.884006023E0
3.674375255E1,1.420670271E0,1.939682961E0,1.683325171E0
3.674879776E1,1.126252413E0,2.204903603E0,1.398203254E0
3.675384292E1,8.091363311E-1,2.321530342E0,1.291109085E0
3.675889453E1,5.168750286E-1,2.433231354E0,1.179754615E0
3.676394005E1,1.006333530E-1,2.621321678E0,1.006288290E0
3.676898552E1,-5.793420970E-2,2.684861183E0,9.996761680E-1
3.677403104E1,1.593779027E-2,2.628800392E0,1.083052874E0
3.677908177E1,4.936034679E-1,2.553721428E0,1.284812570E0
3.678412750E1,1.164226532E0,2.560071945E0,1.499551773E0
3.678917323E1,1.803162098E0,2.614268303E0,1.698681235E0
3.679421901E1,2.358153820E0,2.673206329E0,1.915761709E0
3.679930901E1,2.753009558E0,2.760789871E0,2.141092539E0
3.680439901E1,3.155111074E0,2.929596901E0,2.293539762E0
3.680948901E1,3.325103283E0,3.026500702E0,2.382601738E0
3.681458750E1,3.583295107E0,3.008565903E0,2.570618868E0
3.681961318E1,3.824545860E0,2.914203644E0,2.766543150E0
3.682466568E1,4.082593441E0,2.867862701E0,2.994059086E0
3.682971818E1,4.343924046E0,2.950778961E0,3.047397375E0
3.683477068E1,4.499758720E0,3.191467285E0,2.974322796E0
3.683980052E1,4.264327526E0,3.651875496E0,2.770305157E0
3.684485188E1,3.624389410E0,4.456051826E0,2.311702728E0
3.684990323E1,2.748238802E0,5.244864464E0,1.929241300E0
3.685495458E1,1.908380985E0,5.812686920E0,1.657163382E0
3.685998781E1,1.300178409E0,5.944594383E0,1.414750218E0
3.686503823E1,9.796731472E-1,5.578985214E0,1.159299612E0
3.687008870E1,8.747409582E-1,4.855154991E0,7.767827511E-1
3.687513917E1,7.990313768E-1,3.964827538E0,2.193119079E-1
3.688017511E1,7.575191259E-1,3.252541542E0,-4.227423072E-1
3.688522484E1,8.741725683E-1,2.655930519E0,-9.828629494E-1
3.689027453E1,1.053108096E0,2.031394958E0,-1.437895060E0
3.689532427E1,1.132288456E0,1.508071899E0,-1.716440558E0
3.690036245E1,1.169562578E0,9.758214951E-1,-1.842374086E0
3.690541156E1,1.203416348E0,5.589694977E-1,-1.848499894E0
3.691046073E1,1.177074671E0,2.573060989E-1,-1.747795582E0
3.691550984E1,1.153575540E0,8.973693848E-2,-1.648921013E0
3.692054964E1,1.066608310E0,-4.918193817E-2,-1.598454595E0
3.692559833E1,8.162634373E-1,-1.021423340E-1,-1.585799098E0
3.693064698E1,5.459820032E-1,-2.141857147E-2,-1.701148987E0
3.693569568E1,2.888235748E-1,1.689538956E-1,-1.786391735E0
3.694073698E1,-2.379069924E-1,2.776050568E-1,-1.879946947E0
3.694578526E1,-6.908107996E-1,3.860321045E-1,-1.995954394E0
3.695083360E1,-1.023193240E0,6.617279053E-1,-2.355209351E0
3.695588188E1,-1.125411272E0,8.367471695E-1,-2.906455278E0
3.696092427E1,-1.504186869E0,1.317768097E0,-3.431660891E0
3.696597224E1,-1.953988910E0,1.850983620E0,-3.990564108E0
3.697102026E1,-2.374916315E0,2.383733749E0,-4.466381073E0
3.697606823E1,-2.762377739E0,2.772500992E0,-4.727353096E0
3.698111146E1,-3.159625053E0,3.026978493E0,-4.999947548E0
3.698615927E1,-3.509702444E0,3.056411743E0,-5.007899284E0
3.699120703E1,-3.745911837E0,2.961474419E0,-4.852299690E0
3.699625479E1,-3.854087114E0,2.656217575E0,-4.447152138E0
3.700129870E1,-3.896259308E0,2.389595032E0,-3.896894455E0
3.700634630E1,-3.876966953E0,2.094631195E0,-3.386616468E0
3.701139386E1,-3.862904549E0,1.819215775E0,-2.847779989E0
3.701644141E1,-3.762901306E0,1.534659386E0,-2.369648457E0
3.702148594E1,-3.724806309E0,1.178816795E0,-1.936237693E0
3.702653339E1,-3.662290096E0,8.187398911E-1,-1.651564837E0
3.703158078E1,-3.551163197E0,4.352998734E-1,-1.490661263E0
3.703662818E1,-3.515508175E0,3.808498383E-2,-1.381049156E0
3.704167318E1,-3.498001575E0,-4.015884399E-1,-1.279394031E0
3.704672047E1,-3.517991781E0,-7.880268097E-1,-1.257653952E0
3.705176776E1,-3.461504459E0,-1.202602386E0,-1.229998231E0
3.705681505E1,-3.305189371E0,-1.621377945E0,-1.172774553E0
3.706186042E1,-3.106662750E0,-1.996527672E0,-1.067297339E0
3.706690761E1,-2.904689074E0,-2.352025032E0,-9.904637337E-1
3.707195479E1,-2.642360687E0,-2.683126450E0,-9.089006186E-1
3.707700198E1,-2.358057261E0,-3.028122902E0,-8.037419319E-1
3.708204760E1,-1.994200587E0,-3.257880211E0,-7.034849524E-1
3.708709474E1,-1.531480312E0,-3.463410854E0,-6.080781221E-1
3.709214182E1,-1.141869545E0,-3.673434734E0,-5.414228439E-1
3.709718896E1,-8.057600260E-1,-3.797091007E0,-4.264758229E-1
3.710209896E1,-5.947987437E-1,-3.954082012E0,-3.341462314E-1
3.710711745E1,-3.935258687E-1,-4.063027859E0,-3.417763412E-1
3.711215672E1,-1.204011440E-1,-4.162261486E0,-3.674887717E-1
3.711719594E1,8.618324995E-2,-4.223097324E0,-3.920581043E-1
3.712228594E1,2.313622236E-1,-4.255138874E0,-3.247123063E-1
3.712737594E1,3.247860670E-1,-4.220176220E0,-3.421913087E-1
3.713246594E1,3.903219104E-1,-4.132640362E0,-3.679751456E-1
3.713755594E1,5.044007301E-1,-4.069119930E0,-4.403729439E-1
3.714260922E1,5.615275502E-1,-3.972198963E0,-4.255633354E-1
3.714765755E1,6.141517162E-1,-3.846681118E0,-5.155442953E-1
3.715270583E1,6.812305450E-1,-3.702146053E0,-5.338085294E-1
3.715775417E1,7.915725112E-1,-3.548147678E0,-4.714930654E-1
3.716279641E1,9.114899635E-1,-3.360775471E0,-3.384948969E-1
3.716784443E1,1.036331415E0,-3.240492344E0,-2.210111320E-1
3.717289245E1,1.118417501E0,-3.187213421E0,-1.140057445E-1
3.717794047E1,1.244011641E0,-3.062160492E0,1.165745854E-1
3.718298365E1,1.365502596E0,-2.975432396E0,3.085411191E-1
3.718803146E1,1.325446606E0,-2.917402267E0,4.668865800E-1
3.719307927E1,1.228954673E0,-2.792434692E0,7.692925930E-1
3.719812703E1,1.008938074E0,-2.744140625E0,8.528747559E-1
3.720317089E1,8.086026907E-1,-2.805943489E0,8.951511979E-1
3.720821849E1,6.372461915E-1,-2.824703217E0,9.299440980E-1
3.721326604E1,4.133383036E-1,-2.862669945E0,8.330656886E-1
3.721831360E1,2.468238175E-1,-2.891122818E0,7.383635044E-1
3.722335813E1,1.133795381E-1,-2.905300140E0,7.698970437E-1
3.722840557E1,-4.471582174E-2,-2.938718796E0,7.601144910E-1
3.723345302E1,-2.369422317E-1,-2.976998329E0,6.562545300E-1
3.723850042E1,-5.067510009E-1,-3.005800247E0,5.968225002E-1
3.724354537E1,-7.875680327E-1,-3.082540512E0,5.861229300E-1
3.724859266E1,-9.601848722E-1,-3.078042030E0,6.715410948E-1
3.725363995E1,-1.058477402E0,-3.040254593E0,7.332873940E-1
3.725868724E1,-1.173612118E0,-2.940549850E0,8.814334273E-1
3.726373260E1,-1.233692765E0,-2.779002190E0,1.077579856E0
3.726877979E1,-1.195946455E0,-2.579622269E0,1.240421295E0
3.727382703E1,-1.017179251E0,-2.442881584E0,1.437171817E0
3.727887422E1,-8.262531757E-1,-2.287369728E0,1.648679495E0
3.728391979E1,-6.992692947E-1,-2.070027351E0,1.798313141E0
3.728896693E1,-5.353986025E-1,-1.876978874E0,1.795086145E0
3.729401401E1,-4.542030096E-1,-1.555117607E0,2.064284086E0
3.729906115E1,-3.265606165E-1,-1.238516808E0,2.232480526E0
3.730410698E1,-2.002580762E-1,-9.941091537E-1,2.400161505E0
3.730915401E1,-8.951854706E-2,-6.496124268E-1,2.495306730E0
3.731420110E1,2.961224318E-2,-3.055524826E-1,2.627555847E0
3.731924813E1,1.474120021E-1,-1.831054688E-4,2.743950367E0
3.732429422E1,3.070934117E-1,3.335313797E-1,2.815509081E0
3.732934120E1,4.466801882E-1,6.668882370E-1,2.928263426E0
3.733438823E1,5.806632638E-1,1.033383369E0,3.019889832E0
3.733943526E1,7.763102055E-1,1.385178566E0,3.075994968E0
3.734448146E1,9.665528536E-1,1.688812256E0,3.082376003E0
3.734952844E1,1.204201460E0,2.068706512E0,3.082118511E0
3.735457531E1,1.508998752E0,2.448279381E0,3.099386692E0
3.735962235E1,1.752814174E0,2.798873901E0,3.039061069E0
3.736466865E1,1.788400531E0,3.072716713E0,2.844417095E0
3.736971557E1,1.554487109E0,3.231647491E0,2.535188198E0
3.737476250E1,1.147225380E0,3.323635101E0,2.183268070E0
3.737980943E1,7.961773276E-1,3.315286636E0,1.912737846E0
3.738485589E1,5.014821887E-1,3.268951416E0,1.746819019E0
3.738990276E1,2.728523910E-1,3.151286125E0,1.784801245E0
3.739494969E1,8.153837919E-2,3.029427528E0,1.924908400E0
3.739999662E1,-1.302499771E-1,2.908268929E0,2.232553244E0
3.740504302E1,-2.768613696E-1,2.730545998E0,2.658246279E0
3.741008990E1,-3.731388450E-1,2.568176270E0,3.119629860E0
3.741513677E1,-4.580154419E-1,2.349493027E0,3.711827278E0
3.742018365E1,-5.223549008E-1,2.117684364E0,4.396494865E0
3.742523026E1,-4.857750535E-1,1.930159569E0,5.312834263E0
3.743027714E1,-4.977402091E-1,1.576271057E0,6.075314522E0
3.743532396E1,-1.571645141E-1,1.060791969E0,6.633867264E0
3.744037083E1,2.444117069E-1,8.954601288E-1,6.756741524E0
3.744541750E1,4.255699217E-1,1.270953178E0,6.661631107E0
3.745046432E1,3.011234403E-1,2.004620552E0,6.039896488E0
3.745551120E1,2.396353483E-1,2.947597504E0,4.758886337E0
3.746055807E1,4.133805633E-1,3.817428589E0,3.546108246E0
3.746560469E1,7.704406381E-1,4.284274101E0,2.654644728E0
3.747065151E1,6.938029528E-1,4.864925385E0,2.161826134E0
3.747569833E1,8.091563582E-1,4.994422913E0,1.729698896E0
3.748074521E1,1.025447965E0,4.629895210E0,1.341212034E0
3.748579188E1,1.142760158E0,4.015562057E0,9.364120960E-1
3.749083870E1,9.955011010E-1,3.395512581E0,3.688939810E-1
3.749588552E1,5.517364740E-1,2.860706329E0,-4.943918586E-1
3.750093234E1,-3.887196779E-1,2.258415222E0,-1.855471253E0
3.750597912E1,-1.601035953E0,1.766375542E0,-3.248918056E0
3.751102594E1,-3.367553711E0,1.198672295E0,-4.722063541E0
3.751607276E1,-5.627918243E0,5.845365524E-1,-6.403689384E0
3.752111958E1,-7.874732018E0,-8.532905579E-2,-7.840717316E0
3.752616630E1,-9.568249702E0,-4.859485626E-1,-8.143684387E0
3.753121313E1,-1.053173256E1,-5.991926193E-1,-7.841470718E0
3.753625995E1,-1.057698441E1,-5.312480927E-1,-7.082409859E0
3.754130677E1,-9.360492706E0,-1.871280670E-1,-5.749323845E0
3.754635349E1,-7.090603352E0,2.892799377E-1,-4.278147221E0
3.755140031E1,-5.675440788E0,9.029331207E-1,-3.233388901E0
3.755644714E1,-5.250072956E0,1.758886337E0,-2.362659454E0
3.756149391E1,-5.121185303E0,2.612507820E0,-1.620343685E0
3.756654068E1,-4.917879581E0,3.386753082E0,-1.118749261E0
3.757158745E1,-4.603191376E0,3.957172394E0,-8.798695803E-1
3.757663427E1,-4.239406109E0,4.410277367E0,-9.700627923E-1
3.758168110E1,-3.974300146E0,4.775247574E0,-1.384312153E0
3.758672792E1,-3.601758480E0,5.004797935E0,-1.735817194E0
3.759177474E1,-3.202271938E0,5.018319130E0,-2.269750834E0
3.759682151E1,-2.832449198E0,4.869207382E0,-3.064048529E0
3.760186833E1,-2.195275307E0,4.515104294E0,-3.991421700E0
3.760691510E1,-1.352087021E0,3.975888252E0,-4.767372608E0
3.761196188E1,-4.929816723E-1,3.333489418E0,-5.433042049E0
3.761700870E1,1.875036061E-1,2.803502083E0,-6.158579350E0
3.762205552E1,8.104490042E-1,2.275897026E0,-6.760104656E0
3.762710229E1,1.577840209E0,1.764986992E0,-6.886328220E0
3.763214906E1,2.351931810E0,1.275390625E0,-6.826301098E0
3.763719589E1,3.100743294E0,7.973222733E-1,-6.466242313E0
3.764224271E1,3.466866016E0,4.835615158E-1,-5.853813648E0
3.764728948E1,3.699818134E0,1.662712097E-1,-5.150965691E0
3.765233625E1,3.933287382E0,-2.217111588E-1,-4.524117947E0
3.765738307E1,4.024079323E0,-5.704660416E-1,-3.938548088E0
3.766242990E1,4.105923176E0,-8.180055618E-1,-3.263980627E0
3.766747667E1,4.125854015E0,-1.179765701E0,-2.589885712E0
3.767252344E1,3.988517523E0,-1.650911331E0,-2.072679043E0
3.767757026E1,3.870785236E0,-2.040080070E0,-1.634902000E0
3.768261708E1,3.772299051E0,-2.438288689E0,-1.247146130E0
3.768766391E1,3.587972641E0,-2.816890717E0,-8.751869798E-1
3.769271068E1,3.317632675E0,-3.180732727E0,-5.708939433E-1
3.769775750E1,3.056870222E0,-3.548991680E0,-3.532216549E-1
3.770280432E1,2.747953415E0,-3.821246624E0,-2.115707099E-2
3.770785110E1,2.447993040E0,-4.078925610E0,3.057056069E-1
3.771289787E1,2.056110144E0,-4.283790112E0,6.181608438E-1
3.771794469E1,1.720134377E0,-4.498068333E0,8.590213060E-1
3.772299151E1,1.343817711E0,-4.688261509E0,9.618080854E-1
3.772803823E1,1.084412932E0,-4.796998501E0,1.036939144E0
3.773308500E1,8.410567045E-1,-4.886545658E0,1.070240021E0
3.773813182E1,5.894801617E-1,-4.933012486E0,1.143476486E0
3.774317860E1,4.630417228E-1,-4.960349560E0,1.184984207E0
3.774822547E1,2.754152715E-1,-4.916000843E0,1.219111204E0
3.775327224E1,1.603406072E-1,-4.895698071E0,1.207690954E0
3.775831906E1,7.460170984E-2,-4.765503407E0,1.179611683E0
3.776336583E1,-9.192934632E-2,-4.688151836E0,1.149343610E0
3.776841266E1,-1.626716852E-1,-4.615730762E0,1.112051129E0
3.777345943E1,-1.618092656E-1,-4.543438435E0,9.528027177E-1
3.777850625E1,-1.944902390E-1,-4.399537563E0,8.964857459E-1
3.778355302E1,-2.795973718E-1,-4.332365513E0,7.370222211E-1
3.778856068E1,-2.450507581E-1,-4.289193630E0,5.886734724E-1
3.779360552E1,-2.485364079E-1,-4.217384815E0,4.798912406E-1
3.779865037E1,-2.563747764E-1,-4.097840786E0,2.764180601E-1
3.780369521E1,-2.829650640E-1,-3.964083195E0,8.305734396E-2
3.780878703E1,-3.042646945E-1,-3.840035915E0,-2.414418012E-2
3.781383427E1,-3.443809748E-1,-3.730455875E0,-1.416615993E-1
3.781888146E1,-4.320337474E-1,-3.573153973E0,-1.501373202E-1
3.782392865E1,-4.334742427E-1,-3.349056721E0,-1.933244467E-1
3.782897422E1,-4.158246815E-1,-3.168244839E0,-1.850321591E-1
3.783402136E1,-3.505167961E-1,-2.949367523E0,-1.825972348E-1
3.783906844E1,-2.757688165E-1,-2.745085716E0,-1.189449579E-1
3.784411557E1,-2.152953297E-1,-2.569738388E0,-6.108991429E-2
3.784916141E1,-1.212558001E-1,-2.385032654E0,-6.152924895E-2
3.785420844E1,-5.596467853E-2,-2.143154144E0,1.861189306E-2
3.785925552E1,4.798823595E-2,-1.930273056E0,7.391505688E-2
3.786430255E1,1.375791281E-1,-1.741559982E0,2.094089687E-1
3.786934860E1,2.366831303E-1,-1.471775055E0,3.580361009E-1
3.787439557E1,3.214838505E-1,-1.254927635E0,4.815241992E-1
3.787944260E1,4.156977534E-1,-1.081386566E0,6.419670582E-1
3.788448958E1,5.192049146E-1,-8.793582916E-1,7.722032666E-1
3.788949662E1,6.223083735E-1,-6.249647141E-1,9.773684740E-1
3.789454162E1,7.106786370E-1,-4.330520630E-1,1.204928398E0
3.789958662E1,8.465459943E-1,-2.844104767E-1,1.363993049E0
3.790463162E1,1.020124197E0,-1.311607361E-1,1.535899758E0
3.790972297E1,1.126157522E0,4.103946686E-2,1.739729762E0
3.791477031E1,1.207748413E0,1.986923218E-1,1.913568974E0
3.791981766E1,1.346070528E0,3.609495163E-1,2.081642628E0
3.792486500E1,1.488545656E0,4.751968384E-1,2.258779287E0
3.792991021E1,1.563426137E0,6.467056274E-1,2.369078636E0
3.793495740E1,1.737923384E0,8.514938354E-1,2.480035782E0
3.794000464E1,1.887625813E0,9.938640594E-1,2.496416807E0
3.794505188E1,2.022294998E0,1.274748802E0,2.562174559E0
3.795009740E1,2.137178183E0,1.583973885E0,2.567770720E0
3.795514453E1,2.141714334E0,1.902364731E0,2.551788807E0
3.796019167E1,2.189037323E0,2.210781097E0,2.495121002E0
3.796523880E1,2.087962627E0,2.442281723E0,2.402444363E0
3.797028453E1,1.968012333E0,2.635224342E0,2.215739489E0
3.797533162E1,1.838825941E0,2.708364487E0,2.067994833E0
3.798037870E1,1.733729362E0,2.704900742E0,2.005833387E0
3.798542573E1,1.666662216E0,2.696677208E0,2.023378611E0
3.799047177E1,1.680557132E0,2.602399826E0,2.143553495E0
3.799551880E1,1.760690331E0,2.470005035E0,2.341798782E0
3.800056578E1,1.868176699E0,2.356943130E0,2.579657793E0
3.800561281E1,2.045586586E0,2.248853683E0,2.886096239E0
3.801065901E1,2.297392368E0,2.140955925E0,3.151717424E0
3.801570599E1,2.575403214E0,2.047604561E0,3.496976852E0
3.802075292E1,2.889301062E0,1.983132362E0,3.783627272E0
3.802579990E1,3.019098997E0,1.784906387E0,4.059886932E0
3.803070990E1,3.199382067E0,1.653949738E0,4.322070599E0
3.803572870E1,3.501765728E0,1.609313965E0,4.436411858E0
3.804076781E1,3.745432854E0,1.674777985E0,4.518205643E0
3.804580688E1,3.816721439E0,1.984077454E0,4.390905380E0
3.805087651E1,3.606460094E0,2.517750740E0,4.074045658E0
3.805591719E1,3.148869514E0,3.203759193E0,3.453150749E0
3.806095787E1,2.506124496E0,4.027574539E0,2.532861233E0
3.806599849E1,1.960374832E0,4.936438560E0,1.561454892E0
3.807106349E1,1.630913258E0,5.662440300E0,6.724841595E-1
3.807610537E1,1.365121841E0,6.138831139E0,-9.142220765E-2
3.808114724E1,1.052912712E0,6.222462654E0,-6.736645103E-1
3.808618912E1,8.568133712E-1,5.918623924E0,-9.795705676E-1
3.809125057E1,6.764848828E-1,5.270842552E0,-1.134175181E0
3.809629344E1,5.314394236E-1,4.317791939E0,-1.290862322E0
3.810133630E1,3.834816813E-1,3.241599083E0,-1.454869151E0
3.810637917E1,1.748972535E-1,2.286341667E0,-1.602374554E0
3.811143766E1,-8.070448041E-2,1.456701279E0,-1.747852325E0
3.811648130E1,-2.115710676E-1,7.812252045E-1,-1.833098054E0
3.812152495E1,-3.327770233E-1,2.070980072E-1,-1.904965043E0
3.812656865E1,-3.246310651E-1,-3.710556030E-1,-1.976714015E0
3.813165865E1,-3.157686293E-1,-8.911237717E-1,-2.023480654E0
3.813674865E1,-3.626950979E-1,-1.310227394E0,-2.020062447E0
3.814183865E1,-4.693224430E-1,-1.552057266E0,-2.132925272E0
3.814693818E1,-6.255346537E-1,-1.597757339E0,-2.261000633E0
3.815196886E1,-8.266004324E-1,-1.528893471E0,-2.269858599E0
3.815701995E1,-1.058055282E0,-1.240404129E0,-2.379459858E0
3.816207110E1,-1.277315974E0,-7.564516068E-1,-2.503469944E0
3.816712224E1,-1.437322974E0,-8.679580688E-2,-2.637190580E0
3.817215615E1,-1.500297546E0,6.823043823E-1,-2.800391436E0
3.817720641E1,-1.643415451E0,1.684679985E0,-2.921984911E0
3.818225667E1,-1.924505353E0,2.637944221E0,-3.084107637E0
3.818730693E1,-2.177128315E0,3.370076180E0,-3.254416704E0
3.819234339E1,-2.325649500E0,3.924454689E0,-3.319298506E0
3.819739297E1,-2.346439362E0,4.320444107E0,-3.332074404E0
3.820244255E1,-2.421165943E0,4.467371941E0,-3.403331995E0
3.820749214E1,-2.496930361E0,4.403812408E0,-3.471690893E0
3.821240214E1,-2.573895693E0,4.187421799E0,-3.547482252E0
3.821741516E1,-2.661193371E0,3.770539284E0,-3.630516291E0
3.822245636E1,-2.754200697E0,3.263408661E0,-3.630276918E0
3.822749755E1,-2.829109430E0,2.785689354E0,-3.498875618E0
3.823258755E1,-2.770797968E0,2.318197250E0,-3.336457968E0
3.823767755E1,-2.755953550E0,1.923064232E0,-3.123165131E0
3.824276755E1,-2.774733305E0,1.590621948E0,-2.891951561E0
3.824785755E1,-2.797911406E0,1.268166542E0,-2.699637890E0
3.825276755E1,-2.768289089E0,9.365472794E-1,-2.507139921E0
3.825778995E1,-2.718739986E0,6.531543732E-1,-2.280790806E0
3.826283167E1,-2.711021423E0,3.031387329E-1,-2.010474682E0
3.826787344E1,-2.797513485E0,3.483390808E-2,-1.805752873E0
3.827296344E1,-2.964341879E0,-2.092447281E-1,-1.752334476E0
3.827805344E1,-3.078508615E0,-4.769372940E-1,-1.716309786E0
3.828314344E1,-3.116641760E0,-7.825517654E-1,-1.683807731E0
3.828823344E1,-3.098331690E0,-1.164287567E0,-1.660263538E0
3.829314344E1,-2.947733402E0,-1.492918015E0,-1.627180576E0
3.829816464E1,-2.769611120E0,-1.830685616E0,-1.599034786E0
3.830320672E1,-2.492089748E0,-2.172793388E0,-1.562139034E0
3.830824880E1,-2.186941147E0,-2.466627121E0,-1.497772217E0
3.831330958E1,-1.921022892E0,-2.731383324E0,-1.396274567E0
3.831835260E1,-1.674922824E0,-2.967097282E0,-1.301182985E0
3.832339563E1,-1.405716658E0,-3.245545387E0,-1.159754157E0
3.832843865E1,-1.204083920E0,-3.423202991E0,-9.958440661E-1
3.833349667E1,-9.979772568E-1,-3.586279392E0,-7.950245142E-1
3.833854047E1,-8.687264919E-1,-3.749142170E0,-6.528198123E-1
3.834358422E1,-7.492199540E-1,-3.868751049E0,-4.923742115E-1
3.834862802E1,-6.493322253E-1,-3.983422756E0,-3.613757193E-1
3.835368375E1,-5.354521275E-1,-4.097947598E0,-2.213819325E-1
3.835872818E1,-3.982089758E-1,-4.193198681E0,-4.342906177E-2
3.836377250E1,-2.855617404E-1,-4.273983479E0,5.774777383E-2
3.836881693E1,-1.352566481E-1,-4.325974941E0,9.185806662E-2
3.837387089E1,-1.385264993E-1,-4.463983059E0,9.224003553E-2
3.837891573E1,-3.761970252E-2,-4.539647579E0,1.591170281E-1
3.838396063E1,3.062409461E-1,-4.457395077E0,2.062564343E-1
3.838900552E1,5.304024816E-1,-4.365670681E0,3.293784857E-1
3.839405802E1,5.681750774E-1,-4.082751751E0,4.519178271E-1
3.839910328E1,6.344239116E-1,-3.934091091E0,5.790510774E-1
3.840414854E1,1.010913134E0,-3.967347622E0,8.639083505E-1
3.840919380E1,1.358339548E0,-3.976652622E0,9.719420671E-1
3.841428380E1,1.629602075E0,-3.966815472E0,1.013426661E0
3.841937380E1,1.825016856E0,-4.004815578E0,1.103384495E0
3.842446380E1,2.035916567E0,-3.951902866E0,1.184370041E0
3.842956250E1,2.205316305E0,-3.937307835E0,1.299218774E0
3.843458927E1,2.275980234E0,-3.922728062E0,1.443417311E0
3.843964146E1,2.357790470E0,-3.912955761E0,1.569632053E0
3.844469365E1,2.245074511E0,-3.951033115E0,1.726084828E0
3.844974578E1,1.937619448E0,-3.931691647E0,1.812667370E0
3.845477656E1,1.616262555E0,-3.931534290E0,1.748286724E0
3.845982771E1,1.275893688E0,-3.907495022E0,1.585656524E0
3.846487880E1,8.444597721E-1,-3.835683346E0,1.448751330E0
3.846992990E1,4.797116518E-1,-3.653981686E0,1.413646221E0
3.847496391E1,1.957491189E-1,-3.443827152E0,1.408346415E0
3.848001412E1,-5.534267426E-2,-3.214819431E0,1.428105593E0
3.848506438E1,-2.308523506E-1,-2.952633858E0,1.443843365E0
3.849011458E1,-4.552682042E-1,-2.681221962E0,1.474532723E0
3.849515115E1,-6.331004500E-1,-2.414945602E0,1.434079647E0
3.850020068E1,-7.164589763E-1,-2.158575058E0,1.446562767E0
3.850525026E1,-8.345384002E-1,-1.936003685E0,1.439721346E0
3.851029979E1,-9.155014753E-1,-1.685018539E0,1.442063451E0
3.851520979E1,-1.011838913E0,-1.386517525E0,1.448018909E0
3.852022287E1,-1.061175108E0,-1.069259644E0,1.496264219E0
3.852526406E1,-1.130290866E0,-6.376132965E-1,1.547869086E0
3.853030521E1,-1.195229650E0,-1.969375610E-1,1.597776055E0
3.853536875E1,-1.298794031E0,2.192802429E-1,1.645811319E0
3.854041104E1,-1.335574269E0,6.349821091E-1,1.734860659E0
3.854545333E1,-1.310032606E0,1.026263237E0,1.874262691E0
3.855049568E1,-1.365400791E0,1.421851158E0,1.963316798E0
3.855558568E1,-1.396290660E0,1.802614212E0,2.078220844E0
3.856067568E1,-1.364104986E0,2.192493439E0,2.204441071E0
3.856576568E1,-1.278315067E0,2.548443794E0,2.355950356E0
3.857085568E1,-1.100392699E0,2.956608772E0,2.642452955E0
3.857576568E1,-9.019470215E-1,3.292593002E0,2.983267546E0
3.858078547E1,-7.165437341E-1,3.523028374E0,3.253515005E0
3.858582792E1,-5.154732466E-1,3.667190552E0,3.405993223E0
3.859087042E1,-3.275110126E-1,3.682169914E0,3.522065878E0
3.859593005E1,-1.145025641E-1,3.582506180E0,3.548562050E0
3.860097339E1,2.810655534E-2,3.411424637E0,3.662566423E0
3.860601672E1,1.817438602E-1,3.288615227E0,3.925956011E0
3.861106000E1,3.081422448E-1,3.171006203E0,4.190763950E0
3.861611719E1,4.361151159E-1,2.896031380E0,4.495396137E0
3.862116120E1,5.129622221E-1,2.564332008E0,4.826237679E0
3.862620521E1,4.666414559E-1,2.166417122E0,5.068993092E0
3.863124922E1,3.970573843E-1,1.721494675E0,5.271949768E0
3.863630432E1,3.610424995E-1,1.330054283E0,5.478296757E0
3.864134886E1,4.535520077E-1,1.101996422E0,5.698089600E0
3.864639344E1,4.354517460E-1,1.022749901E0,5.769178391E0
3.865143802E1,4.314614236E-1,1.163832664E0,5.716234207E0
3.865652802E1,6.388717890E-1,1.792756081E0,5.631099224E0
3.866161802E1,7.723859549E-1,2.722304344E0,4.951277733E0
3.866670802E1,8.244645596E-1,3.626962662E0,3.811220884E0
3.867180714E1,7.963697910E-1,4.650365829E0,3.147828579E0
3.867683552E1,9.362213016E-1,5.691822052E0,2.990384340E0
3.868188724E1,1.377813935E0,6.473773956E0,2.799711704E0
3.868693901E1,1.948557377E0,6.757224083E0,2.750130177E0
3.869199073E1,2.983182907E0,6.585631371E0,2.920251369E0
3.869702281E1,3.803632975E0,5.940258980E0,3.169411659E0
3.870207354E1,3.837759495E0,5.032017708E0,3.094124794E0
3.870712432E1,3.309947014E0,3.808631897E0,2.576427937E0
3.871217505E1,2.376916885E0,2.438145638E0,1.405265331E0
3.871721005E1,8.513708711E-1,9.212589264E-1,-6.301021576E-2
3.872226005E1,-1.180885673E0,-4.208021164E-1,-2.177007675E0
3.872731000E1,-3.698685646E0,-1.324785233E0,-4.847489357E0
3.873235995E1,-6.447694302E0,-1.714708328E0,-7.426076412E0
3.873726995E1,-9.095289230E0,-1.524895668E0,-8.940824509E0
3.874228219E1,-1.123751640E1,-9.863557816E-1,-9.126836777E0
3.874732370E1,-1.234091854E1,-3.925752640E-1,-8.593528748E0
3.875236516E1,-1.218513298E1,-1.080875397E-1,-7.783426285E0
3.875745516E1,-1.046429729E1,2.068004608E-1,-6.811607838E0
3.876254516E1,-7.844489098E0,4.999055862E-1,-5.418700218E0
3.876763516E1,-6.050931454E0,9.681348801E-1,-4.417372704E0
3.877272516E1,-5.150466442E0,1.659546852E0,-3.847091913E0
3.877763516E1,-4.508050442E0,2.320723534E0,-3.385360241E0
3.878265688E1,-3.992021561E0,2.922705650E0,-3.103192568E0
3.878769886E1,-3.462758064E0,3.437062263E0,-2.990387917E0
3.879274078E1,-2.876574516E0,3.720633507E0,-3.151841402E0
3.879780198E1,-2.228045464E0,3.821791649E0,-3.563933372E0
3.880284490E1,-1.577833176E0,3.860716820E0,-4.098917961E0
3.880788781E1,-9.441738725E-1,3.699059486E0,-4.523782253E0
3.881293073E1,-3.311101794E-1,3.437720299E0,-5.027030468E0
3.881798906E1,1.949776411E-1,3.124792099E0,-5.547971725E0
3.882303271E1,6.207427382E-1,2.918292046E0,-5.868555069E0
3.882807641E1,1.051424384E0,2.751127243E0,-6.253440857E0
3.883312011E1,1.434440732E0,2.623232841E0,-6.546395302E0
3.883817610E1,1.707407951E0,2.419725418E0,-6.457222939E0
3.884322042E1,2.119640350E0,2.169357300E0,-6.269224167E0
3.884826474E1,2.474953651E0,1.872120857E0,-6.064095020E0
3.885330901E1,2.745243788E0,1.566290855E0,-5.555068970E0
3.885836323E1,2.983098507E0,1.213553429E0,-4.947214603E0
3.886340802E1,3.337451696E0,7.421970367E-1,-4.440371513E0
3.886845281E1,3.569468975E0,2.431917191E-1,-3.884963512E0
3.887349766E1,3.808763266E0,-2.021741867E-1,-3.318245649E0
3.887855037E1,4.079693317E0,-5.701065063E-1,-2.959245682E0
3.888359557E1,4.105483532E0,-9.611959457E-1,-2.615566969E0
3.888864078E1,4.101508141E0,-1.361126900E0,-2.176750898E0
3.889368599E1,4.082467079E0,-1.683869362E0,-1.891043425E0
3.889873750E1,3.967183352E0,-2.025229454E0,-1.643472314E0
3.890378302E1,3.822819233E0,-2.370892525E0,-1.381311655E0
3.890882854E1,3.596858263E0,-2.644384384E0,-1.176335454E0
3.891387412E1,3.380102158E0,-2.946267128E0,-8.800825477E-1
3.891892469E1,3.062246799E0,-3.214361191E0,-6.648119092E-1
3.892397042E1,2.882150412E0,-3.338727474E0,-5.543698668E-1
3.892901620E1,2.595930815E0,-3.482174397E0,-3.194104731E-1
3.893406198E1,2.337309837E0,-3.673379421E0,-1.944537759E-1
3.893911177E1,2.096415997E0,-3.850110531E0,-1.127633676E-1
3.894415776E1,1.873080134E0,-3.974125385E0,-2.834856510E-3
3.894920375E1,1.695593119E0,-4.055041790E0,6.337028742E-2
3.895424969E1,1.582813025E0,-4.150291920E0,1.812633425E-1
3.895929891E1,1.271565795E0,-4.207251072E0,3.747897744E-1
3.896434505E1,8.524771929E-1,-4.249860287E0,7.255814075E-1
3.896939120E1,5.831414461E-1,-4.282892704E0,1.119362593E0
3.897443734E1,3.485371768E-1,-4.301592350E0,1.270094991E0
3.897952735E1,8.645769954E-2,-4.320326328E0,1.293016434E0
3.898461735E1,-1.175437868E-1,-4.286467075E0,1.322259545E0
3.898970734E1,-2.686842680E-1,-4.219196796E0,1.372250199E0
3.899480557E1,-3.766207695E-1,-4.180731297E0,1.333103418E0
3.899971557E1,-4.512033463E-1,-4.123198032E0,1.319534421E0
3.900471833E1,-4.635685682E-1,-3.979675770E0,1.341172695E0
3.900976323E1,-5.042511225E-1,-3.817245960E0,1.326466918E0
3.901480818E1,-5.588191152E-1,-3.688536167E0,1.285064220E0
3.901989818E1,-5.893134475E-1,-3.583919048E0,1.264512420E0
3.902498818E1,-6.341407299E-1,-3.417269230E0,1.197770000E0
3.903007818E1,-6.263800859E-1,-3.289084911E0,1.084520340E0
3.903517708E1,-5.663003922E-1,-3.184956074E0,1.058601618E0
3.904020469E1,-5.206504464E-1,-3.071381569E0,9.620113969E-1
3.904525667E1,-4.698365331E-1,-2.919689178E0,8.522270322E-1
3.905030860E1,-3.854135871E-1,-2.806429863E0,7.770142555E-1
3.905536052E1,-3.055257201E-1,-2.745903015E0,6.501462460E-1
3.906027052E1,-2.060201466E-1,-2.675868988E0,4.898448288E-1
3.906527828E1,-1.869057119E-1,-2.620265007E0,3.779944181E-1
3.907032136E1,-1.045976728E-1,-2.598197937E0,2.517850399E-1
3.907536443E1,-9.298966825E-2,-2.561800957E0,2.110241503E-1
3.908042234E1,-1.377661228E-1,-2.482396126E0,1.740976572E-1
3.908546615E1,-1.815894991E-1,-2.407860756E0,1.213595271E-1
3.909051000E1,-1.770751774E-1,-2.314270973E0,2.053824961E-1
3.909555386E1,-2.056373060E-1,-2.196876526E0,3.253022432E-1
3.910060938E1,-1.767616272E-1,-2.046134949E0,3.663556874E-1
3.910565380E1,-6.699836254E-2,-1.933825493E0,5.292878151E-1
3.911069823E1,7.554197311E-2,-1.764253616E0,7.135352492E-1
3.911574266E1,2.267931551E-1,-1.518364906E0,9.142358899E-1
3.912079651E1,4.009994864E-1,-1.248862267E0,1.179085016E0
3.912584141E1,6.506897211E-1,-9.940338135E-1,1.469917417E0
3.913088630E1,8.945345879E-1,-7.538604736E-1,1.643444061E0
3.913593120E1,1.003510356E0,-4.996271133E-1,1.924587011E0
3.914098360E1,1.197565675E0,-2.361259460E-1,2.150700569E0
3.914602886E1,1.347691655E0,-1.597213745E-2,2.331767559E0
3.915107417E1,1.492041826E0,1.704626083E-1,2.568523645E0
3.915611943E1,1.635494709E0,3.853950500E-1,2.741654396E0
3.916117073E1,1.749140382E0,6.383619308E-1,2.856369019E0
3.916621630E1,1.861741424E0,8.719282150E-1,2.908360720E0
3.917126188E1,1.925432563E0,1.153066635E0,2.903094530E0
3.917630745E1,2.040403605E0,1.414761543E0,2.817302942E0
3.918139745E1,2.125430346E0,1.685724258E0,2.689532995E0
3.918648745E1,2.295434952E0,1.903758049E0,2.477299929E0
3.919157745E1,2.392624617E0,2.131091118E0,2.209508181E0
3.919667599E1,2.479592562E0,2.353359222E0,2.067734480E0
3.920158599E1,2.589734793E0,2.517953873E0,2.009016752E0
3.920658979E1,2.660347939E0,2.629742622E0,2.023095131E0
3.921163432E1,2.872460842E0,2.717493057E0,2.038161039E0
3.921667891E1,3.335851669E0,2.695158005E0,2.044459343E0
3.922173235E1,3.697018147E0,2.620262146E0,2.127778053E0
3.922677734E1,3.999618769E0,2.497659683E0,2.158452749E0
3.923182234E1,4.229196072E0,2.399168015E0,2.188422441E0
3.923686735E1,4.309311390E0,2.296089172E0,2.312449455E0
3.924195734E1,4.397692204E0,2.293675423E0,2.462655306E0
3.924704734E1,4.350774765E0,2.291392326E0,2.614792585E0
3.925213734E1,4.326177597E0,2.370580673E0,2.854453802E0
3.925723620E1,4.443783760E0,2.550300598E0,2.970683813E0
3.926214620E1,4.179368019E0,3.059913635E0,2.926564693E0
3.926715094E1,3.514638901E0,3.942046165E0,2.741658449E0
3.927219510E1,2.618053675E0,4.995285988E0,2.241053820E0
3.927723927E1,1.804896712E0,5.793751717E0,1.856851697E0
3.928232927E1,1.427446604E0,6.199082375E0,1.388642788E0
3.928741927E1,1.259684563E0,6.149610519E0,8.605368137E-1
3.929250927E1,1.062555313E0,5.645891190E0,5.067637563E-1
3.929760860E1,9.800812006E-1,4.745890617E0,3.408103883E-1
3.930251860E1,9.084388018E-1,3.555238724E0,1.043554246E-1
3.930752484E1,7.181903124E-1,2.409149170E0,-1.801295578E-1
3.931256844E1,5.959905386E-1,1.446277618E0,-4.507825077E-1
3.931761208E1,7.421934009E-1,7.381238937E-1,-6.497895122E-1
3.932270208E1,9.035871029E-1,4.229993820E-1,-7.861917615E-1
3.932779208E1,9.473475218E-1,2.850542068E-1,-8.106492162E-1
3.933288208E1,8.219648004E-1,2.234907150E-1,-7.122644186E-1
3.933798167E1,6.474580765E-1,2.141666412E-1,-5.564272404E-1
3.934301235E1,5.006031990E-1,3.142786026E-1,-5.279298425E-1
3.934806344E1,3.340576291E-1,4.805507660E-1,-5.871561170E-1
3.935311458E1,9.547516704E-2,7.798271179E-1,-7.523765564E-1
3.935816573E1,-6.660580635E-2,1.030245781E0,-8.989006281E-1
3.936319964E1,-2.953656912E-1,1.384990692E0,-1.093916178E0
3.936824990E1,-7.055751085E-1,1.882325172E0,-1.495392680E0
3.937330016E1,-1.049051046E0,2.426669121E0,-1.942090034E0
3.937835047E1,-1.369785786E0,3.027770042E0,-2.421443462E0
3.938338682E1,-1.673181415E0,3.575767517E0,-2.878230810E0
3.938843641E1,-1.949563503E0,4.089978218E0,-3.347711563E0
3.939348599E1,-2.376291990E0,4.479680061E0,-3.769781351E0
3.939853552E1,-2.714668989E0,4.792902946E0,-4.265940189E0
3.940357406E1,-3.080711126E0,4.900623322E0,-4.958073139E0
3.940862307E1,-3.479586363E0,4.764774323E0,-5.470194817E0
3.941367208E1,-3.902475357E0,4.438174248E0,-5.627386570E0
3.941872115E1,-4.402765274E0,3.997467041E0,-5.636486530E0
3.942376125E1,-4.776090145E0,3.567034721E0,-5.430856228E0
3.942880984E1,-4.803326607E0,2.936348915E0,-5.158703327E0
3.943385844E1,-4.809529305E0,2.249086380E0,-4.766863346E0
3.943890698E1,-4.880225658E0,1.629657745E0,-4.321122646E0
3.944394849E1,-4.890829086E0,1.082773209E0,-3.882309675E0
3.944899672E1,-4.740767002E0,5.414113998E-1,-3.367835283E0
3.945404490E1,-4.554152489E0,3.907585144E-2,-2.900658131E0
3.945909313E1,-4.402297020E0,-4.099082947E-1,-2.431329250E0
3.946413568E1,-4.289863586E0,-8.199501038E-1,-2.092304230E0
3.946918360E1,-4.039862156E0,-1.262837410E0,-1.854190350E0
3.947423151E1,-3.800738573E0,-1.642896652E0,-1.529540896E0
3.947927943E1,-3.625074148E0,-1.979356766E0,-1.328163505E0
3.948432281E1,-3.460447550E0,-2.272310257E0,-1.106157064E0
3.948937052E1,-3.153769255E0,-2.584001541E0,-9.112561941E-1
3.949441823E1,-2.891798019E0,-2.890520096E0,-8.103699088E-1
3.949946594E1,-2.607477665E0,-3.158410072E0,-6.982989907E-1
3.950451000E1,-2.281556368E0,-3.416424274E0,-5.463583469E-1
3.950955755E1,-1.957056522E0,-3.640675068E0,-4.885374308E-1
3.951460505E1,-1.667126894E0,-3.802503109E0,-4.531629384E-1
3.951965255E1,-1.411591887E0,-4.035897732E0,-3.779970407E-1
3.952469714E1,-1.128329992E0,-4.202104092E0,-2.867020369E-1
3.952974453E1,-8.217635155E-1,-4.372937679E0,-1.934910864E-1
3.953479188E1,-5.584435463E-1,-4.486210346E0,-1.555770636E-1
3.953983927E1,-3.717402220E-1,-4.623306751E0,-9.621673822E-2
3.954488438E1,-2.137383819E-1,-4.722030163E0,-9.190148115E-2
3.954993162E1,-9.874552488E-2,-4.796776295E0,-1.139843315E-1
3.955497886E1,4.002785683E-2,-4.876281261E0,-1.051465869E-1
3.956002610E1,2.167867124E-1,-4.936623096E0,-1.422169805E-1
3.956507151E1,3.645235300E-1,-4.973036289E0,-2.014390677E-1
3.957011865E1,4.641912878E-1,-4.975984097E0,-2.492687702E-1
3.957516583E1,6.018750072E-1,-4.916800976E0,-2.382649779E-1
3.958021302E1,7.583911419E-1,-4.848169804E0,-2.928468287E-1
3.958525865E1,8.478372097E-1,-4.755729198E0,-2.889626026E-1
3.959030573E1,9.564443827E-1,-4.672974110E0,-2.793709040E-1
3.959535281E1,1.093697071E0,-4.509035587E0,-1.969033480E-1
3.960039990E1,1.178081512E0,-4.340531826E0,-1.328040212E-1
3.960544583E1,1.243133426E0,-4.191374302E0,-1.159572154E-1
3.961049287E1,1.350996733E0,-3.985021114E0,-8.890092373E-2
3.961553990E1,1.439436197E0,-3.778924465E0,-7.104998827E-2
3.962058693E1,1.542064667E0,-3.549151897E0,-2.930732071E-2
3.962563302E1,1.644408226E0,-3.405727863E0,5.028288066E-2
3.963068000E1,1.650917888E0,-3.252883434E0,8.110013604E-2
3.963572698E1,1.643052578E0,-3.119317055E0,1.873499155E-1
3.964077391E1,1.563471437E0,-3.024127960E0,3.063132763E-1
3.964582016E1,1.459861517E0,-2.924242973E0,5.237674713E-1
3.965086708E1,1.346597075E0,-2.834017754E0,7.247552872E-1
3.965591401E1,1.189992428E0,-2.724763870E0,9.044383168E-1
3.966096099E1,9.896785617E-1,-2.586975098E0,1.062897682E0
3.966600735E1,8.219138980E-1,-2.497235298E0,1.276859999E0
3.967105422E1,7.153635621E-1,-2.398100853E0,1.441267729E0
3.967610115E1,6.075280905E-1,-2.275260925E0,1.609135985E0
3.968114807E1,4.892209768E-1,-2.104815483E0,1.800038695E0
3.968619448E1,3.844836652E-1,-1.944206238E0,1.947141171E0
3.969124136E1,2.261468768E-1,-1.736051559E0,2.074713707E0
3.969628823E1,1.432489753E-1,-1.499557495E0,2.226047754E0
3.970133516E1,4.488599300E-2,-1.287364006E0,2.348626137E0
3.970638162E1,-6.865757704E-2,-1.065943718E0,2.509502411E0
3.971142849E1,-1.542678475E-1,-8.448753357E-1,2.598902702E0
3.971647531E1,-2.838625908E-1,-6.098146439E-1,2.664408207E0
3.972152219E1,-3.186247945E-1,-4.612026215E-1,2.725183964E0
3.972656880E1,-3.445872664E-1,-3.032617569E-1,2.776273012E0
3.973161563E1,-3.999065161E-1,-4.034423828E-2,2.807933092E0
3.973666250E1,-4.510596991E-1,2.270011902E-1,2.819890261E0
3.974170932E1,-4.790693521E-1,5.131111145E-1,2.859903812E0
3.974675594E1,-4.600409269E-1,8.897094727E-1,2.927689552E0
3.975180276E1,-3.219835162E-1,1.375829697E0,2.999598980E0
3.975684958E1,-1.842988729E-1,1.866137505E0,3.109387875E0
3.976189646E1,-7.038629055E-2,2.317606926E0,3.147449970E0
3.976694307E1,6.828165054E-2,2.802054405E0,3.071231604E0
3.977198990E1,1.938396096E-1,3.219034195E0,2.895076275E0
3.977703672E1,2.539689839E-1,3.477793694E0,2.618703842E0
3.978208354E1,3.062094152E-1,3.698116302E0,2.356254816E0
3.978713021E1,3.651602268E-1,3.813151360E0,2.178389311E0
3.979217703E1,3.976414800E-1,3.952219009E0,1.997812510E0
3.979722386E1,4.277344346E-1,4.053184509E0,1.961592436E0
3.980227068E1,5.033019781E-1,4.020513535E0,1.953733206E0
3.980731734E1,5.622892976E-1,3.887937546E0,2.097699404E0
3.981236412E1,6.385219693E-1,3.631766319E0,2.435899258E0
3.981741094E1,6.367215514E-1,3.362238884E0,2.844033957E0
3.982245776E1,5.903899670E-1,2.993369102E0,3.216890574E0
3.982750453E1,4.565636516E-1,2.525358200E0,3.760682583E0
3.983255130E1,2.301705480E-1,2.058736801E0,4.266304493E0
3.983759813E1,-1.658097506E-1,1.583907127E0,4.868783951E0
3.984264495E1,-6.939459443E-1,1.048166275E0,5.459299088E0
3.984769167E1,-1.178748608E0,5.422039032E-1,5.972836494E0
3.985273844E1,-1.449609995E0,1.231355667E-1,6.305426598E0
3.985778526E1,-1.670757055E0,-3.241157532E-2,6.333556175E0
3.986283208E1,-1.556241035E0,2.233181000E-1,6.196546078E0
3.986787880E1,-1.240151525E0,9.040985107E-1,6.181676865E0
3.987292557E1,-1.109078884E0,1.817985535E0,5.802251816E0
3.987797240E1,-1.090200186E0,2.950253487E0,4.815564156E0
3.988301917E1,-1.110471725E0,3.942010880E0,4.326876640E0
3.988806599E1,-1.245754361E0,4.597135544E0,4.351519585E0
3.989311276E1,-1.324851990E0,4.838901520E0,4.064866543E0
3.989815958E1,-1.109234095E0,4.729463577E0,3.116343975E0
3.990320636E1,-1.195598006E0,4.766559601E0,2.172680855E0
3.990825313E1,-1.615365386E0,4.959613800E0,9.238766432E-1
3.991329990E1,-2.170423031E0,4.911762238E0,-7.830427289E-1
3.991834672E1,-3.059558868E0,4.867858887E0,-2.366526127E0
3.992339349E1,-4.066372871E0,4.842893600E0,-3.758163452E0
3.992844026E1,-5.301877499E0,4.186842918E0,-4.913357258E0
3.993348703E1,-6.639350891E0,3.015560150E0,-6.678004265E0
3.993853380E1,-7.876287937E0,1.746050835E0,-8.200962067E0
3.994358063E1,-8.786710739E0,6.176633835E-1,-9.368704796E0
3.994862745E1,-9.144746780E0,-2.838001251E-1,-9.775047302E0
3.995367422E1,-8.737886429E0,-9.062585831E-1,-9.241210938E0
3.995872104E1,-7.375900745E0,-1.140340805E0,-8.020147324E0
3.996376781E1,-5.731774807E0,-8.623800278E-1,-6.303632736E0
3.996881453E1,-4.553992271E0,-3.363075256E-1,-4.759946823E0
3.997386130E1,-3.816740990E0,3.750858307E-1,-3.617918491E0
3.997890807E1,-3.481272936E0,1.137330055E0,-2.811217546E0
3.998395490E1,-3.236715794E0,1.840142250E0,-2.351675749E0
3.998900172E1,-2.978082657E0,2.655652046E0,-1.950589657E0
3.999404849E1,-2.705504894E0,3.339780807E0,-1.769330740E0
3.999909526E1,-2.576688290E0,3.816287041E0,-1.807363033E0
4.000414208E1,-2.419115067E0,4.209969521E0,-1.868555069E0
4.000918886E1,-2.175201893E0,4.363359451E0,-2.101465464E0
4.001423563E1,-1.882959366E0,4.186209679E0,-2.439828634E0
4.001928240E1,-1.480124235E0,3.789295197E0,-3.081295252E0
4.002432922E1,-8.898432255E-1,3.249822617E0,-3.903759718E0
4.002937599E1,-2.214745283E-1,2.659219742E0,-4.546569824E0
4.003442276E1,3.392551541E-1,2.079988480E0,-5.146677494E0
4.003946953E1,8.795667291E-1,1.540976524E0,-5.673649311E0
4.004451636E1,1.553292871E0,1.032604218E0,-5.929364204E0
4.004956318E1,2.122056961E0,5.547742844E-1,-5.987783909E0
4.005460995E1,2.510456562E0,1.934099197E-1,-5.706964493E0
4.005965672E1,2.896152973E0,-2.718048096E-1,-5.297549725E0
4.006470354E1,3.193743229E0,-7.739467621E-1,-4.788040638E0
4.006975026E1,3.504042625E0,-1.126606941E0,-4.249211788E0
4.007479703E1,3.750779629E0,-1.392266273E0,-3.646647453E0
4.007984380E1,3.896360397E0,-1.590282440E0,-3.122276306E0
4.008489063E1,3.845474720E0,-1.864311218E0,-2.646028519E0
4.008993745E1,3.746241570E0,-2.152154922E0,-2.073456764E0
4.009498422E1,3.617083311E0,-2.501666069E0,-1.465444922E0
4.010003099E1,3.582509041E0,-2.975003242E0,-1.074295878E0
4.010507781E1,3.561011791E0,-3.399897099E0,-7.505556345E-1
4.011012458E1,3.514449120E0,-3.752547741E0,-4.172643423E-1
4.011517136E1,3.342838764E0,-4.133553982E0,-2.124016881E-1
4.012021813E1,3.208820343E0,-4.442487240E0,1.608839780E-1
4.012526495E1,3.112714767E0,-4.765589237E0,6.406899691E-1
4.013017495E1,2.916423082E0,-4.916415691E0,8.402904868E-1
4.013519406E1,2.461793184E0,-4.981273174E0,8.750429749E-1
4.014023302E1,1.997513413E0,-4.993745327E0,9.315172434E-1
4.014527198E1,1.599570036E0,-4.920395374E0,9.282416105E-1
4.015034203E1,1.162127614E0,-4.809119701E0,9.846928716E-1
4.015538255E1,7.563222051E-1,-4.626443386E0,1.043287277E0
4.016042307E1,3.622661829E-1,-4.425018787E0,1.070924759E0
4.016546360E1,1.611043811E-1,-4.180915356E0,1.072564125E0
4.017052896E1,-1.149201989E-1,-3.913322926E0,1.019628048E0
4.017557073E1,-3.558235765E-1,-3.713111401E0,8.591497540E-1
4.018061250E1,-5.571033955E-1,-3.503639698E0,6.626025438E-1
4.018565427E1,-7.380951643E-1,-3.337495327E0,4.103006124E-1
4.019071594E1,-8.845421076E-1,-3.200254917E0,2.259722501E-1
4.019575870E1,-9.923762083E-1,-3.034438133E0,9.404657781E-2
4.020080151E1,-1.052057266E0,-2.863996506E0,-8.153069019E-2
4.020584427E1,-1.130722523E0,-2.712841988E0,-1.290475279E-1
4.021090307E1,-1.156594515E0,-2.609652519E0,-1.589831263E-1
4.021594667E1,-1.196668625E0,-2.525683403E0,-1.669430286E-1
4.022099021E1,-1.236608624E0,-2.389183044E0,-1.051924154E-1
4.022603380E1,-1.242995262E0,-2.315000534E0,-1.213945076E-2
4.023112380E1,-1.201528788E0,-2.264804840E0,2.360548824E-3
4.023621380E1,-1.122097969E0,-2.243340492E0,1.008680165E-1
4.024130380E1,-9.231324196E-1,-2.264941216E0,1.974090934E-1
4.024640339E1,-6.717716455E-1,-2.296074867E0,3.447563946E-1
4.025131339E1,-4.636031687E-1,-2.322389603E0,4.807152152E-1
4.025632063E1,-2.978291512E-1,-2.353486061E0,6.730306149E-1
4.026136391E1,-1.507260203E-1,-2.355863571E0,8.215596080E-1
4.026640719E1,4.427349567E-2,-2.296061516E0,9.221172333E-1
4.027146438E1,2.249699831E-1,-2.260239601E0,9.796801209E-1
4.027650833E1,3.385440707E-1,-2.224443436E0,1.056675196E0
4.028155234E1,5.761486292E-1,-2.121710777E0,1.138846517E0
4.028659636E1,7.415537834E-1,-2.047777176E0,1.187741041E0
4.029168636E1,9.067595005E-1,-1.930876732E0,1.231762290E0
4.029677636E1,1.009213328E0,-1.780617714E0,1.356841326E0
4.030186636E1,1.168557882E0,-1.659218788E0,1.447908401E0
4.030696568E1,1.312901139E0,-1.514037132E0,1.533333778E0
4.031187568E1,1.417799115E0,-1.407260895E0,1.665408969E0
4.031688224E1,1.589157462E0,-1.305386543E0,1.825080276E0
4.032192578E1,1.769466043E0,-1.194061279E0,2.026436567E0
4.032696927E1,1.915750146E0,-1.087646484E0,2.173794031E0
4.033205927E1,2.028241158E0,-9.670095444E-1,2.339125872E0
4.033714927E1,2.102102757E0,-8.130340576E-1,2.474662542E0
4.034223927E1,2.214056969E0,-6.448926926E-1,2.657222033E0
4.034733896E1,2.301844597E0,-4.482536316E-1,2.801010370E0
4.035224896E1,2.360354424E0,-2.183589935E-1,2.882758141E0
4.035725630E1,2.442902565E0,2.081775665E-2,2.955066442E0
4.036229953E1,2.405931473E0,2.979621887E-1,2.932399750E0
4.036734281E1,2.344917059E0,5.939025879E-1,2.930050373E0
4.037243281E1,2.140363216E0,8.942613602E-1,2.862099886E0
4.037752281E1,1.902049303E0,1.237301826E0,2.657349825E0
4.038261281E1,1.677636862E0,1.556017876E0,2.344503880E0
4.038771255E1,1.504959702E0,1.836099625E0,2.009306192E0
4.039262255E1,1.460214734E0,2.039342880E0,1.842587113E0
4.039763047E1,1.515016675E0,2.180178642E0,1.743522406E0
4.040267344E1,1.688132405E0,2.292167664E0,1.797830701E0
4.040771651E1,1.936393619E0,2.346650124E0,1.871462226E0
4.041277443E1,2.202422857E0,2.420215607E0,2.012197495E0
4.041781818E1,2.428855896E0,2.531967163E0,2.129132509E0
4.042286198E1,2.649010420E0,2.533609390E0,2.203074217E0
4.042790578E1,2.887016535E0,2.501794815E0,2.295783997E0
4.043296146E1,3.051923513E0,2.498741150E0,2.358909607E0
4.043800589E1,3.210736752E0,2.538761139E0,2.420593739E0
4.044305021E1,3.282413960E0,2.717449188E0,2.585488081E0
4.044809464E1,3.228690624E0,3.087241173E0,2.633164644E0
4.045314854E1,3.011017799E0,3.619223595E0,2.587606192E0
4.045819339E1,2.725009203E0,4.313206673E0,2.386929512E0
4.046323828E1,2.342631102E0,5.135503769E0,1.955292940E0
4.046828313E1,1.893831730E0,6.038101196E0,1.480131149E0
4.047337313E1,1.570830345E0,6.690883636E0,9.620851874E-1
4.047846313E1,1.254933357E0,7.055866241E0,5.065894127E-1
4.048355313E1,9.127199650E-1,7.109491348E0,2.755630761E-2
4.048865208E1,7.402366400E-1,6.770842552E0,-3.221632242E-1
4.049356208E1,5.367363691E-1,6.021273613E0,-5.524121523E-1
4.049856703E1,3.069299757E-1,5.033477783E0,-7.456728220E-1
4.050361110E1,1.461472511E-1,3.965598106E0,-9.837388992E-1
4.050865516E1,-2.251687646E-2,2.937321663E0,-1.205084085E0
4.051374516E1,-2.516871691E-1,2.029925346E0,-1.290608168E0
4.051883516E1,-4.464797974E-1,1.195463181E0,-1.268313169E0
4.052392516E1,-5.453838110E-1,5.629682541E-1,-1.251469970E0
4.052902453E1,-5.293790102E-1,7.476997375E-2,-1.224184990E0
4.053393453E1,-4.895398617E-1,-2.645978928E-1,-1.260458350E0
4.053894094E1,-4.633130431E-1,-4.314622879E-1,-1.269024253E0
4.054398453E1,-4.742004871E-1,-4.595785141E-1,-1.329769015E0
4.054902813E1,-5.888177156E-1,-2.822151184E-1,-1.446293712E0
4.055411813E1,-6.777359247E-1,4.693984985E-3,-1.665480018E0
4.055920813E1,-7.314624190E-1,2.958135605E-1,-1.881891012E0
4.056429813E1,-8.549146652E-1,7.968168259E-1,-2.220221281E0
4.056939766E1,-1.100576162E0,1.430990219E0,-2.690610170E0
4.057430766E1,-1.292214870E0,1.997432709E0,-3.176213741E0
4.057931490E1,-1.563415766E0,2.548877716E0,-3.634716272E0
4.058435818E1,-1.852586269E0,3.004117012E0,-4.011210918E0
4.058940146E1,-2.098119020E0,3.339393616E0,-4.303596497E0
4.059449146E1,-2.319381475E0,3.478325844E0,-4.513609886E0
4.059958146E1,-2.550519466E0,3.507217407E0,-4.585629940E0
4.060467146E1,-2.748761892E0,3.459648132E0,-4.492021084E0
4.060977120E1,-2.876307011E0,3.196987152E0,-4.257302761E0
4.061468120E1,-2.981881618E0,2.839039803E0,-4.015409470E0
4.061968896E1,-2.988015652E0,2.428956985E0,-3.636427641E0
4.062473203E1,-2.904450417E0,2.014632225E0,-3.157787800E0
4.062977511E1,-2.702006817E0,1.691729546E0,-2.673764467E0
4.063483297E1,-2.556941748E0,1.345369339E0,-2.221288443E0
4.063987677E1,-2.506974936E0,9.995021820E-1,-1.841853380E0
4.064492057E1,-2.494184732E0,6.158742905E-1,-1.529508710E0
4.064996438E1,-2.494290829E0,2.519207001E-1,-1.312272310E0
4.065505438E1,-2.469137430E0,-1.975936890E-1,-1.113191247E0
4.066014438E1,-2.538848400E0,-6.464910507E-1,-1.080057383E0
4.066523438E1,-2.497992992E0,-1.018258095E0,-9.784928560E-1
4.067033380E1,-2.514281988E0,-1.351254463E0,-9.522476196E-1
4.067524380E1,-2.550700903E0,-1.726858139E0,-9.774185419E-1
4.068025068E1,-2.482356548E0,-2.039782524E0,-9.115388393E-1
4.068529412E1,-2.376769543E0,-2.347509384E0,-8.743293285E-1
4.069033750E1,-2.330130339E0,-2.630929947E0,-8.516331911E-1
4.069539432E1,-2.170580387E0,-2.928349495E0,-7.765495777E-1
4.070043844E1,-1.936897278E0,-3.230211258E0,-6.967312098E-1
4.070548250E1,-1.557338953E0,-3.450422764E0,-6.173583269E-1
4.071052656E1,-1.127243638E0,-3.679948330E0,-5.141903758E-1
4.071558141E1,-8.229092360E-1,-3.880501270E0,-4.301090539E-1
4.072062604E1,-5.818690062E-1,-4.032996655E0,-3.409140706E-1
4.072567068E1,-3.081682920E-1,-4.147057056E0,-1.986565292E-1
4.073071526E1,-4.929620028E-2,-4.284904003E0,-1.129727215E-1
4.073576844E1,1.665097326E-1,-4.336514950E0,-4.017610848E-2
4.074081349E1,3.155893981E-1,-4.388078213E0,4.364150763E-2
4.074585854E1,4.985638857E-1,-4.420472622E0,4.311791062E-2
4.075090365E1,6.534249783E-1,-4.457632542E0,1.019884646E-1
4.075595552E1,7.514601946E-1,-4.461295605E0,1.101779342E-1
4.076100094E1,7.781965733E-1,-4.493681431E0,1.203496754E-1
4.076604636E1,8.962093592E-1,-4.516486645E0,7.955956459E-2
4.077109172E1,9.907497168E-1,-4.520148754E0,2.601277828E-2
4.077614266E1,1.028368831E0,-4.447285175E0,-2.162438631E-2
4.078118833E1,9.420002699E-1,-4.283634663E0,-5.422598124E-2
4.078623396E1,8.702393770E-1,-4.091485500E0,-9.118738770E-2
4.079127964E1,8.892207146E-1,-3.837408543E0,-9.433683753E-2
4.079636964E1,9.559904337E-1,-3.578855991E0,-8.777397871E-2
4.080145964E1,9.605202079E-1,-3.358871937E0,-5.729970336E-2
4.080654964E1,9.602367878E-1,-3.210880756E0,4.947964847E-2
4.081164813E1,1.031894207E0,-3.010443687E0,1.743558049E-2
4.081667386E1,8.695651293E-1,-2.786305428E0,1.047748476E-1
4.082172625E1,8.078730702E-1,-2.653297424E0,2.589417696E-1
4.082677870E1,7.510092854E-1,-2.530011177E0,3.365547061E-1
4.083183115E1,6.177961826E-1,-2.464253426E0,3.856281042E-1
4.083674115E1,5.319694281E-1,-2.460760117E0,4.057390988E-1
4.084174781E1,4.364809096E-1,-2.481177330E0,4.065853655E-1
4.084679130E1,2.450675666E-1,-2.482437134E0,4.069476426E-1
4.085183479E1,4.360693693E-2,-2.565008163E0,3.778884411E-1
4.085692479E1,-1.394649744E-1,-2.628371239E0,3.669719398E-1
4.086201479E1,-3.141256571E-1,-2.639095306E0,5.604488254E-1
4.086710479E1,-4.567278028E-1,-2.582925797E0,7.816544771E-1
4.087220443E1,-5.388117433E-1,-2.455185890E0,9.878491163E-1
4.087711443E1,-6.180582643E-1,-2.375548363E0,1.203435779E0
4.088212188E1,-6.799069643E-1,-2.214824677E0,1.404819131E0
4.088716511E1,-7.529620528E-1,-2.063981056E0,1.573230028E0
4.089220828E1,-7.656301260E-1,-1.918234825E0,1.785361528E0
4.089726563E1,-7.753487229E-1,-1.729750633E0,1.873862028E0
4.090230958E1,-7.867125869E-1,-1.503347397E0,1.991692662E0
4.090735349E1,-7.903243899E-1,-1.219947815E0,2.153237581E0
4.091239740E1,-7.622793913E-1,-9.274358749E-1,2.233738422E0
4.091745271E1,-7.600844502E-1,-6.688556671E-1,2.328602791E0
4.092249719E1,-7.259373069E-1,-3.963069916E-1,2.475594282E0
4.092754167E1,-6.360934973E-1,-1.480598450E-1,2.640833616E0
4.093258620E1,-5.382364392E-1,7.593727112E-2,2.809637785E0
4.093763985E1,-4.512133300E-1,2.709560394E-1,2.914929390E0
4.094268479E1,-3.413015008E-1,4.609651566E-1,3.047453642E0
4.094772974E1,-1.796007752E-1,6.029520035E-1,3.201987505E0
4.095277469E1,1.027768850E-2,7.639532089E-1,3.397412300E0
4.095782682E1,2.190151960E-1,9.343967438E-1,3.504638433E0
4.096287219E1,3.946143687E-1,1.061687469E0,3.629200935E0
4.096791750E1,5.613664389E-1,1.279791832E0,3.670954943E0
4.097296281E1,7.435686588E-1,1.535996437E0,3.721040249E0
4.097801396E1,9.182201624E-1,1.858963013E0,3.794313431E0
4.098305958E1,8.809828758E-1,2.071658134E0,3.662418365E0
4.098810521E1,4.845370948E-1,2.145507812E0,3.297808170E0
4.099315078E1,1.164776534E-1,2.118923187E0,2.825051785E0
4.099820104E1,-7.986733317E-2,2.068559647E0,2.353378057E0
4.100324688E1,-2.529703677E-1,2.037528038E0,1.957833052E0
4.100829276E1,-4.121121466E-1,2.068916321E0,1.655597806E0
4.101333854E1,-5.144197941E-1,2.229680061E0,1.539993644E0
4.101838813E1,-6.510472298E-1,2.314111710E0,1.575207472E0
4.102343412E1,-7.461353540E-1,2.269811630E0,1.806929231E0
4.102848021E1,-8.051400185E-1,2.082723618E0,2.200257301E0
4.103352620E1,-8.725820780E-1,1.738772392E0,2.922346830E0
4.103857526E1,-8.688278198E-1,1.515585899E0,3.835152149E0
4.104362146E1,-6.852566004E-1,1.374739647E0,4.730325222E0
4.104866766E1,-3.424669504E-1,1.425994873E0,5.582468033E0
4.105371380E1,1.407875717E-1,1.908048630E0,5.979361534E0
4.105876240E1,3.830290437E-1,2.695851326E0,5.933779716E0
4.106380870E1,6.149271727E-1,3.764904976E0,5.476957321E0
4.106885500E1,1.086509466E0,4.469096184E0,5.031280994E0
4.107390130E1,1.435650945E0,4.818288803E0,4.932832241E0
4.107899130E1,1.342378855E0,5.238102913E0,4.672931194E0
4.108408130E1,1.408605099E0,4.967516899E0,3.843568087E0
4.108917130E1,1.897300243E0,4.518861771E0,2.953701973E0
4.109426938E1,2.140330791E0,4.179289818E0,1.970682263E0
4.109917938E1,1.899742246E0,3.757533073E0,1.104436278E0
4.110418182E1,1.221615434E0,3.172609329E0,2.312306166E-1
4.110922682E1,2.303959727E-1,2.415553093E0,-8.562283516E-1
4.111427188E1,-9.742293954E-1,1.640177727E0,-2.122953892E0
4.111936188E1,-2.531898022E0,9.713945389E-1,-3.740088463E0
4.112445188E1,-4.416575909E0,6.151514053E-1,-5.933221817E0
4.112954188E1,-6.665244579E0,4.516630173E-1,-7.723026752E0
4.113464063E1,-8.292778015E0,4.517021179E-1,-8.690099716E0
4.113966797E1,-9.222817421E0,5.380277634E-1,-8.729139328E0
4.114472000E1,-9.543145180E0,7.626180649E-1,-8.270085335E0
4.114977198E1,-9.326551437E0,1.067519188E0,-7.454521179E0
4.115482401E1,-8.075306892E0,1.476357460E0,-6.188581467E0
4.115981599E1,-6.571313858E0,1.922176361E0,-4.745445251E0
4.116486500E1,-5.687266350E0,2.467161179E0,-3.713292360E0
4.116991401E1,-5.201839447E0,3.048958778E0,-2.978543997E0
4.117496297E1,-4.713770390E0,3.552615166E0,-2.548431158E0
4.117988573E1,-4.212978840E0,3.935316086E0,-2.412607193E0
4.118492839E1,-3.777767658E0,4.182764053E0,-2.497311592E0
4.118997104E1,-3.287175417E0,4.242863655E0,-2.893867970E0
4.119501375E1,-2.707140923E0,4.178313255E0,-3.440079212E0
4.120007276E1,-2.123113155E0,3.908279419E0,-4.199298859E0
4.120511625E1,-1.409277439E0,3.476420403E0,-4.982481480E0
4.121015974E1,-6.990202069E-1,3.050536156E0,-5.676752567E0
4.121520323E1,-1.017298698E-1,2.645122528E0,-6.251727581E0
4.122025974E1,3.637739420E-1,2.327145576E0,-6.590080261E0
4.122530386E1,9.179435968E-1,2.096483231E0,-6.660757065E0
4.123034807E1,1.580085516E0,1.809502602E0,-6.623021603E0
4.123539219E1,1.982503057E0,1.576207161E0,-6.626456261E0
4.124044682E1,2.456017256E0,1.343833923E0,-6.313266754E0
4.124549146E1,2.886912823E0,1.045358658E0,-5.798515797E0
4.125053615E1,3.309609413E0,8.194866180E-1,-5.292120934E0
4.125558083E1,3.877895355E0,5.321626663E-1,-4.692378044E0
4.126063386E1,4.368169308E0,2.360000610E-1,-3.907462835E0
4.126567896E1,4.686243057E0,-1.264581680E-1,-3.179759264E0
4.127072406E1,4.885933399E0,-3.830595016E-1,-2.660707474E0
4.127576917E1,4.820022583E0,-6.105756760E-1,-2.071579456E0
4.128085917E1,4.579487801E0,-8.952083588E-1,-1.578911901E0
4.128594917E1,4.294045448E0,-1.174817085E0,-1.272747874E0
4.129103917E1,3.930185556E0,-1.530788422E0,-9.230408669E-1
4.129613787E1,3.411035538E0,-1.810035706E0,-5.870282054E-1
4.130104787E1,2.846608639E0,-2.036607742E0,-3.411669135E-1
4.130605250E1,2.268474102E0,-2.253555298E0,-1.715935916E-1
4.131109672E1,1.800301075E0,-2.489572525E0,-2.604158223E-2
4.131614099E1,1.369569540E0,-2.725492477E0,1.858543754E-1
4.132119526E1,1.013353109E0,-3.047341347E0,3.107758164E-1
4.132624000E1,7.025904655E-1,-3.321098804E0,4.392207861E-1
4.133128474E1,4.128625393E-1,-3.527670383E0,5.757607818E-1
4.133632948E1,2.153171301E-1,-3.686235905E0,8.494550586E-1
4.134141948E1,5.730509758E-2,-3.792066097E0,1.045227289E0
4.134650948E1,-1.043640375E-1,-3.878688335E0,1.206540704E0
4.135159948E1,-2.123616636E-1,-3.960459232E0,1.285967231E0
4.135669844E1,-3.529459238E-1,-3.999111652E0,1.499244452E0
4.136160844E1,-4.739380479E-1,-3.922924519E0,1.751350045E0
4.136661365E1,-5.844860077E-1,-3.875539303E0,1.807853580E0
4.137165766E1,-7.471152544E-1,-3.880806446E0,1.870507717E0
4.137670167E1,-7.804627419E-1,-3.895596027E0,1.929946780E0
4.138179167E1,-7.325328588E-1,-3.886418819E0,1.895600438E0
4.138688167E1,-7.321377993E-1,-3.905933857E0,1.791658640E0
4.139197167E1,-7.838867903E-1,-3.887156963E0,1.709052444E0
4.139707099E1,-7.822053432E-1,-3.901886463E0,1.623629808E0
4.140198099E1,-8.040942550E-1,-3.945281506E0,1.491777897E0
4.140698750E1,-8.680456877E-1,-3.931252003E0,1.409087181E0
4.141203104E1,-8.977625370E-1,-3.902891636E0,1.294201016E0
4.141707458E1,-8.840711117E-1,-3.893681049E0,1.247169018E0
4.142216458E1,-8.842946291E-1,-3.879686832E0,1.148414135E0
4.142725458E1,-8.652710319E-1,-3.880028248E0,1.083947897E0
4.143234458E1,-8.125192523E-1,-3.889904499E0,1.015831947E0
4.143744417E1,-6.926888227E-1,-3.880599499E0,9.442400932E-1
4.144235417E1,-6.165068746E-1,-3.876031399E0,8.159829974E-1
4.144736151E1,-5.017511249E-1,-3.823604107E0,7.322185040E-1
4.145240474E1,-3.534713984E-1,-3.775977612E0,6.639630795E-1
4.145744797E1,-9.051287174E-2,-3.694880962E0,5.296478271E-1
4.146250521E1,1.437556148E-1,-3.546885967E0,3.865868449E-1
4.146754917E1,3.014730811E-1,-3.332085133E0,2.868078649E-1
4.147259313E1,4.257191718E-1,-3.069702148E0,2.200735360E-1
4.147763703E1,5.548130870E-1,-2.793292046E0,2.527456880E-1
4.148272703E1,6.695555449E-1,-2.507662773E0,2.649008334E-1
4.148781703E1,7.553809881E-1,-2.212842941E0,3.228696585E-1
4.149290703E1,8.460203409E-1,-1.961474419E0,4.023184776E-1
4.149800646E1,9.460109472E-1,-1.705680847E0,5.318745375E-1
4.150303636E1,1.026041150E0,-1.411990166E0,6.921266317E-1
4.150808766E1,1.153344631E0,-1.161763191E0,8.829060793E-1
4.151313901E1,1.270414352E0,-9.166812897E-1,1.047041178E0
4.151819031E1,1.400859952E0,-6.719427109E-1,1.285263896E0
4.152322354E1,1.554084063E0,-4.131832123E-1,1.478368759E0
4.152827396E1,1.773338795E0,-2.408485413E-1,1.722285032E0
4.153332438E1,1.948612213E0,-2.089977264E-2,1.907820225E0
4.153837479E1,2.099030733E0,2.418394089E-1,2.035679340E0
4.154341073E1,2.243765593E0,4.755964279E-1,2.168859959E0
4.154846042E1,2.430732250E0,7.712841034E-1,2.207665205E0
4.155351016E1,2.617010355E0,1.152741432E0,2.214822054E0
4.155855979E1,2.688122988E0,1.581602097E0,2.114161253E0
4.156359792E1,2.754286766E0,1.976506233E0,1.977757454E0
4.156864703E1,2.676995754E0,2.452262878E0,1.872236252E0
4.157369615E1,2.432446480E0,2.898765564E0,1.797031879E0
4.157874526E1,2.140331745E0,3.239521027E0,1.799204469E0
4.158378511E1,1.829217434E0,3.465075493E0,1.829994202E0
4.158883375E1,1.565817595E0,3.537295341E0,1.893274903E0
4.159388235E1,1.421237707E0,3.552010536E0,1.969241381E0
4.159893104E1,1.423719883E0,3.518846512E0,2.105178118E0
4.160393307E1,1.591715574E0,3.390031815E0,2.338823795E0
4.160897938E1,1.857837796E0,3.227859497E0,2.569528103E0
4.161402568E1,2.255943775E0,3.099330902E0,2.845258713E0
4.161907198E1,2.671341896E0,2.951810837E0,3.022762537E0
4.162415932E1,2.956234217E0,2.823587418E0,3.245437384E0
4.162920771E1,3.182814121E0,2.623789787E0,3.298490047E0
4.163425610E1,3.389341116E0,2.505553246E0,3.416320801E0
4.163930443E1,3.518409491E0,2.507050514E0,3.551072598E0
4.164434651E1,3.489001513E0,2.513372421E0,3.660332918E0
4.164939453E1,3.440023422E0,2.711040497E0,3.758831978E0
4.165444260E1,3.228086472E0,3.152433395E0,3.713619471E0
4.165949068E1,2.910701990E0,3.775074959E0,3.335008860E0
4.166453370E1,2.364515543E0,4.621758461E0,2.695956945E0
4.166958151E1,1.738487124E0,5.467405319E0,2.060273170E0
4.167462927E1,1.280925274E0,6.015496254E0,1.394640207E0
4.167967708E1,1.058546782E0,6.209004402E0,7.513918877E-1
4.168472083E1,9.707989097E-1,5.900106430E0,2.495043576E-1
4.168976844E1,9.459736347E-1,5.132471085E0,-1.739833355E-1
4.169481604E1,9.364711046E-1,4.246217728E0,-5.628958344E-1
4.169986365E1,9.422521591E-1,3.356281281E0,-8.512352705E-1
4.170490792E1,1.063344717E0,2.601369858E0,-1.130707026E0
4.170995537E1,1.266124249E0,1.923935890E0,-1.368435860E0
4.171500281E1,1.503311157E0,1.309522629E0,-1.506975889E0
4.172005026E1,1.584266663E0,7.819480896E-1,-1.579452991E0
4.172509511E1,1.552872419E0,3.506488800E-1,-1.561338186E0
4.173014240E1,1.510084152E0,3.939342499E-2,-1.523428202E0
4.173518969E1,1.394009113E0,-1.567716599E-1,-1.497878313E0
4.174023698E1,1.286043525E0,-3.049716949E-1,-1.430465460E0
4.174528219E1,1.176815271E0,-2.905044556E-1,-1.415656686E0
4.175032938E1,9.233338833E-1,-1.327104568E-1,-1.610179067E0
4.175537662E1,6.548871398E-1,1.826086044E-1,-1.855672002E0
4.176042380E1,3.089854121E-1,6.409702301E-1,-2.248237371E0
4.176546932E1,4.186369479E-4,1.189661980E0,-2.740811586E0
4.177051641E1,-2.279891372E-1,1.642135620E0,-3.167228460E0
4.177556354E1,-5.340844393E-1,2.103794098E0,-3.577195406E0
4.178061068E1,-1.171614528E0,2.794675827E0,-4.058789253E0
4.178565646E1,-1.773302197E0,3.255406380E0,-4.638050556E0
4.179070354E1,-2.321233749E0,3.581894875E0,-5.164538383E0
4.179575057E1,-2.974117041E0,3.735999107E0,-5.463536739E0
4.180079760E1,-3.704643488E0,3.741768837E0,-5.594238281E0
4.180584360E1,-4.059774399E0,3.518008232E0,-5.394893646E0
4.181089052E1,-4.226593971E0,3.146273613E0,-5.052481651E0
4.181593750E1,-4.276837826E0,2.665023804E0,-4.547166348E0
4.182098458E1,-4.277375221E0,2.127040863E0,-3.930459738E0
4.182603073E1,-4.208749294E0,1.647228241E0,-3.239086628E0
4.183107761E1,-4.142412186E0,1.316422462E0,-2.580699921E0
4.183612458E1,-4.025202751E0,9.814291000E-1,-2.029568911E0
4.184117156E1,-3.871118307E0,6.374654770E-1,-1.593207121E0
4.184621787E1,-3.756259918E0,2.223424911E-1,-1.231458664E0
4.185126479E1,-3.575068712E0,-1.825923920E-1,-9.813776016E-1
4.185631172E1,-3.289149761E0,-7.017402649E-1,-8.470917940E-1
4.186135860E1,-3.127562523E0,-1.196270943E0,-8.285641074E-1
4.186640495E1,-3.013878584E0,-1.637556076E0,-8.255475760E-1
4.187145182E1,-2.924192190E0,-2.092631340E0,-8.098473549E-1
4.187649870E1,-2.887605667E0,-2.499341965E0,-8.153932095E-1
4.188154557E1,-2.751391172E0,-2.852995872E0,-7.947108150E-1
4.188659208E1,-2.554300308E0,-3.168035507E0,-8.007467985E-1
4.189163896E1,-2.387260437E0,-3.434956074E0,-7.762241364E-1
4.189668583E1,-2.111597776E0,-3.610785007E0,-7.691649199E-1
4.190173266E1,-1.794170618E0,-3.805620670E0,-7.462568879E-1
4.190677917E1,-1.497128367E0,-3.947709560E0,-6.596090794E-1
4.191182599E1,-1.225004196E0,-4.051462650E0,-6.239603758E-1
4.191687287E1,-9.107434750E-1,-4.174313068E0,-6.201969385E-1
4.192191969E1,-6.356714964E-1,-4.277982235E0,-6.435009837E-1
4.192696630E1,-3.517350554E-1,-4.381617069E0,-6.363589764E-1
4.193201313E1,-1.351469755E-1,-4.446934223E0,-6.657642126E-1
4.193705995E1,-1.438617706E-2,-4.497875690E0,-7.271015048E-1
4.194210677E1,1.827322245E-1,-4.582278728E0,-7.918832302E-1
4.194715339E1,3.365761638E-1,-4.623561382E0,-8.079103231E-1
4.195220021E1,3.946812749E-1,-4.621766567E0,-7.274955511E-1
4.195724703E1,4.956917465E-1,-4.553051472E0,-7.276561260E-1
4.196229386E1,5.772652626E-1,-4.470100880E0,-7.416660190E-1
4.196734052E1,7.204906940E-1,-4.372931957E0,-7.364944816E-1
4.197238729E1,8.487650752E-1,-4.309381008E0,-6.167415380E-1
4.197743412E1,1.010071278E0,-4.193303585E0,-4.831243455E-1
4.198248094E1,1.166564226E0,-4.029510021E0,-3.499447107E-1
4.198752755E1,1.222585917E0,-3.841970921E0,-2.459297478E-1
4.199257432E1,1.331206918E0,-3.597262859E0,-1.467879117E-1
4.199762115E1,1.506837130E0,-3.357601643E0,-3.375372291E-2
4.200266797E1,1.663686633E0,-3.113372803E0,1.264925003E-1
4.200771474E1,1.572304726E0,-2.950665474E0,3.627975583E-1
4.201276151E1,1.620003700E0,-2.812029839E0,5.365230441E-1
4.201780833E1,1.691764355E0,-2.754836082E0,6.861296892E-1
4.202285511E1,1.668112040E0,-2.731143951E0,8.163830042E-1
4.202790182E1,1.625686884E0,-2.740908623E0,9.798433185E-1
4.203294860E1,1.492732644E0,-2.798449516E0,1.085912585E0
4.203799542E1,1.269390345E0,-2.817625046E0,1.168231487E0
4.204304219E1,1.041426659E0,-2.870265961E0,1.212558270E0
4.204808896E1,8.564772010E-1,-2.951569557E0,1.199840426E0
4.205313573E1,5.951093435E-1,-3.008866310E0,1.134722710E0
4.205818255E1,2.953031659E-1,-3.032657623E0,1.122381449E0
4.206322932E1,-3.345680237E-2,-2.941699028E0,1.172280550E0
4.206827604E1,-2.815957069E-1,-2.850961685E0,1.241227031E0
4.207332281E1,-5.261080265E-1,-2.746149063E0,1.338938236E0
4.207836958E1,-6.476411819E-1,-2.636874199E0,1.489350200E0
4.208341641E1,-7.085163593E-1,-2.494450569E0,1.639739513E0
4.208846318E1,-8.092989922E-1,-2.280671120E0,1.771053076E0
4.209350995E1,-9.260737896E-1,-2.105640411E0,1.897931695E0
4.209855672E1,-1.025587201E0,-1.959774017E0,2.063415527E0
4.210360354E1,-1.036380887E0,-1.728284836E0,2.238718510E0
4.210861104E1,-9.728689194E-1,-1.459092140E0,2.366302967E0
4.211365583E1,-7.968856096E-1,-1.243112564E0,2.422460079E0
4.211870068E1,-5.800440311E-1,-9.750232697E-1,2.435828447E0
4.212374552E1,-4.081586599E-1,-6.978759766E-1,2.482583046E0
4.212883735E1,-2.092727423E-1,-3.829574585E-1,2.486005068E0
4.213388453E1,-1.158559322E-2,-3.022861481E-2,2.502944946E0
4.213893172E1,1.323970556E-1,2.837638855E-1,2.528383017E0
4.214397891E1,2.371172905E-1,6.786489487E-1,2.628922939E0
4.214902443E1,2.978236079E-1,1.058692932E0,2.727613926E0
4.215407151E1,4.629086256E-1,1.510008812E0,2.829254389E0
4.215911865E1,6.178666353E-1,1.965608597E0,2.943188429E0
4.216416573E1,7.489984035E-1,2.439908028E0,3.021437407E0
4.216921156E1,8.858890533E-1,2.956867218E0,3.140981436E0
4.217425860E1,9.194857478E-1,3.377826691E0,3.297173500E0
4.217930563E1,8.360489011E-1,3.578574181E0,3.337615013E0
4.218435266E1,6.122032404E-1,3.645491600E0,3.166956425E0
4.218939875E1,4.105547071E-1,3.631341934E0,2.928693533E0
4.219444573E1,2.022296190E-1,3.502774239E0,2.650716305E0
4.219949266E1,-8.105874062E-3,3.360410690E0,2.499345541E0
4.220453969E1,-1.104269028E-1,3.156511307E0,2.635982752E0
4.220958583E1,-1.621063352E-1,2.886430740E0,2.930812597E0
4.221463276E1,-2.685801387E-1,2.464202881E0,3.144287586E0
4.221967969E1,-3.638113737E-1,2.090843201E0,3.352840662E0
4.222472667E1,-2.952359319E-1,1.751965523E0,3.804971218E0
4.222977292E1,-3.409105539E-1,1.476193428E0,4.438868523E0
4.223481985E1,-2.816986442E-1,1.158101082E0,5.021291733E0
4.223986672E1,-1.182428002E-1,7.785053253E-1,5.424420834E0
4.224491365E1,1.536670923E-1,4.617099762E-1,5.716566086E0
4.224996000E1,3.857313991E-1,3.127803802E-1,5.879691124E0
4.225500688E1,6.550139189E-1,4.414854050E-1,5.780655861E0
4.226005375E1,8.765587807E-1,9.384374619E-1,5.285971642E0
4.226510063E1,7.605203986E-1,1.946900368E0,4.414514065E0
4.227014714E1,3.278636336E-1,3.543091774E0,3.308469296E0
4.227519401E1,-2.254383564E-1,4.722136497E0,2.846413374E0
4.228024083E1,-4.368561506E-1,5.402982712E0,3.105439663E0
4.228528771E1,-2.264399529E-1,5.796144485E0,3.122318745E0
4.229033422E1,4.570674896E-2,5.581045151E0,2.771167755E0
4.229538104E1,3.124605417E-1,4.748495102E0,2.303395510E0
4.230042787E1,2.355986834E-1,3.791546822E0,1.631033778E0
4.230547474E1,-2.792092562E-1,3.001821518E0,7.277543545E-1
4.231038474E1,-1.021753788E0,2.254577637E0,-1.904923916E-1
4.231540375E1,-1.790135384E0,1.636008263E0,-1.176712275E0
4.232044276E1,-3.043730497E0,1.074395180E0,-2.274936676E0
4.232548172E1,-4.591486931E0,7.660512924E-1,-3.626068115E0
4.233057172E1,-6.210174084E0,4.670238495E-1,-5.419548035E0
4.233566172E1,-8.240984917E0,1.586418152E-1,-7.459143639E0
4.234075172E1,-9.758135796E0,-1.874694824E-1,-8.956368446E0
4.234584172E1,-1.033900547E1,-2.794418335E-1,-9.457437515E0
4.235075172E1,-9.909405708E0,-2.898597717E-1,-8.884117126E0
4.235577901E1,-8.311501503E0,-7.079029083E-2,-7.340155125E0
4.236081938E1,-6.623983860E0,4.109668732E-1,-5.821911812E0
4.236585969E1,-5.715064526E0,1.001879692E0,-4.262610435E0
4.237092563E1,-5.140318394E0,1.610370636E0,-2.749496460E0
4.237596724E1,-4.547550201E0,2.288395882E0,-1.714451075E0
4.238100886E1,-3.947652340E0,2.915893555E0,-1.111133099E0
4.238605052E1,-3.512746334E0,3.511986732E0,-8.271341920E-1
4.239114052E1,-3.352758646E0,4.158035278E0,-8.702563047E-1
4.239623052E1,-3.213511467E0,4.682108879E0,-1.388347507E0
4.240132052E1,-3.032440424E0,5.041733742E0,-1.984571338E0
4.240641052E1,-2.847579956E0,5.141975403E0,-2.693958044E0
4.241133880E1,-2.436481714E0,5.012780190E0,-3.563951254E0
4.241638281E1,-1.874037862E0,4.716400146E0,-4.372091293E0
4.242142677E1,-1.105488539E0,4.177330017E0,-5.405218601E0
4.242647073E1,-1.107514501E-1,3.515863419E0,-6.346218586E0
4.243156073E1,7.569160461E-1,2.866271973E0,-7.001889706E0
4.243665073E1,1.542858601E0,2.353072166E0,-7.414993286E0
4.244174443E1,2.252942085E0,1.909026146E0,-7.521568298E0
4.244679490E1,2.946089745E0,1.519515038E0,-7.333487511E0
4.245170490E1,3.571827173E0,1.246434212E0,-7.044035435E0
4.245671589E1,4.118471622E0,9.601135254E-1,-6.392334461E0
4.246175776E1,4.583450317E0,6.413249969E-1,-5.694186687E0
4.246679969E1,4.729178429E0,4.095420837E-1,-4.905203342E0
4.247188969E1,4.804279327E0,1.736326218E-1,-3.870858192E0
4.247697969E1,4.799441814E0,-1.477804184E-1,-3.024610519E0
4.248206969E1,4.518563747E0,-5.020475388E-1,-2.230709314E0
4.248715969E1,4.200211048E0,-8.174524307E-1,-1.501971841E0
4.249206969E1,3.896919727E0,-1.275803566E0,-1.009543538E0
4.249709037E1,3.578051329E0,-1.771751404E0,-7.426696420E-1
4.250213255E1,3.234287977E0,-2.233534813E0,-4.476951361E-1
4.250717469E1,2.856149673E0,-2.637301445E0,-2.681472301E-1
4.251223505E1,2.448075294E0,-3.002275467E0,-1.418867409E-1
4.251727818E1,2.100754261E0,-3.271132469E0,3.138013184E-2
4.252232130E1,1.746613026E0,-3.429664135E0,2.177544534E-1
4.252736438E1,1.409061074E0,-3.549746037E0,4.604216516E-1
4.253242214E1,1.073067546E0,-3.698379993E0,7.691361904E-1
4.253746599E1,7.862053514E-1,-3.813349247E0,1.029474616E0
4.254250979E1,5.720894933E-1,-3.880341053E0,1.198824406E0
4.254755365E1,3.781643212E-1,-3.966361523E0,1.272836566E0
4.255260917E1,1.518441290E-1,-4.018771648E0,1.457538962E0
4.255765365E1,6.030919775E-2,-3.999351978E0,1.542580843E0
4.256269802E1,-5.425828695E-2,-3.979917049E0,1.605135441E0
4.256774245E1,-1.487325132E-1,-4.017844677E0,1.655058742E0
4.257279620E1,-2.758959532E-1,-4.012628078E0,1.577705979E0
4.257784110E1,-4.215364158E-1,-4.016929150E0,1.502177238E0
4.258288599E1,-5.858813524E-1,-3.978133678E0,1.399626017E0
4.258793089E1,-6.785113811E-1,-3.910648823E0,1.327153921E0
4.259298323E1,-7.186170220E-1,-3.852774143E0,1.260610580E0
4.259802854E1,-7.494685650E-1,-3.823630810E0,1.166261077E0
4.260307380E1,-7.424072027E-1,-3.751456738E0,1.048506975E0
4.260811906E1,-7.310486436E-1,-3.746300220E0,9.361740947E-1
4.261320906E1,-6.864899397E-1,-3.678944111E0,8.293236494E-1
4.261829906E1,-5.610063672E-1,-3.625988483E0,7.374019623E-1
4.262338906E1,-4.549753368E-1,-3.553931713E0,6.365373135E-1
4.262848761E1,-3.392099738E-1,-3.524959087E0,4.598245025E-1
4.263339760E1,-2.234193385E-1,-3.481650829E0,3.406122625E-1
4.263840193E1,-1.453184634E-1,-3.438318729E0,2.560060918E-1
4.264344625E1,-6.209541857E-2,-3.433222294E0,1.677099168E-1
4.264849057E1,2.156181633E-2,-3.389784336E0,4.706552625E-2
4.265358057E1,1.057598963E-1,-3.346297741E0,-7.706585526E-2
4.265867057E1,2.045627385E-1,-3.317125797E0,-1.572335064E-1
4.266376057E1,2.699786723E-1,-3.220971584E0,-1.988135278E-1
4.266885969E1,3.212400675E-1,-3.129686356E0,-2.742685080E-1
4.267388865E1,4.156432152E-1,-3.057659149E0,-3.413566947E-1
4.267894021E1,5.245867968E-1,-2.899683952E0,-3.288385868E-1
4.268399182E1,6.144211292E-1,-2.808955193E0,-2.231260538E-1
4.268904339E1,7.377627492E-1,-2.627593040E0,-7.719981670E-2
4.269407583E1,8.179141283E-1,-2.403575897E0,6.539285183E-2
4.269912641E1,8.787479997E-1,-2.180006027E0,3.242831230E-1
4.270417708E1,9.342853427E-1,-1.928205490E0,6.132122278E-1
4.270922771E1,1.108608723E0,-1.681702614E0,1.018175840E0
4.271413771E1,1.229533553E0,-1.416541100E0,1.443935990E0
4.271914828E1,1.335571289E0,-1.113583565E0,1.847841978E0
4.272419031E1,1.512726307E0,-7.871990204E-1,2.158615589E0
4.272923234E1,1.722818136E0,-4.469394684E-1,2.443882465E0
4.273429328E1,1.937177777E0,-1.358366013E-1,2.785414934E0
4.273933630E1,2.055531979E0,1.939926147E-1,3.130811691E0
4.274437927E1,2.250179052E0,4.995241165E-1,3.413872242E0
4.274942224E1,2.463808060E0,7.569150925E-1,3.659256935E0
4.275451224E1,2.605681181E0,1.028425217E0,3.752805948E0
4.275960224E1,2.723737717E0,1.357093811E0,3.766807556E0
4.276469224E1,2.741411924E0,1.666355133E0,3.725931168E0
4.276979203E1,2.740165710E0,1.941896439E0,3.563585997E0
4.277470203E1,2.752830505E0,2.226766586E0,3.337137222E0
4.277971031E1,2.655628681E0,2.587932587E0,3.018051386E0
4.278475323E1,2.486602306E0,2.915261269E0,2.667945862E0
4.278979610E1,2.331513882E0,3.156146049E0,2.367494583E0
4.279485448E1,2.190659046E0,3.320242882E0,2.077700377E0
4.279989813E1,1.982720017E0,3.359783173E0,1.864683867E0
4.280494182E1,1.879716754E0,3.289231300E0,1.756426811E0
4.280998547E1,1.914657354E0,3.237815857E0,1.742840528E0
4.281504146E1,2.072698832E0,3.234186172E0,1.790157914E0
4.282008578E1,2.315222502E0,3.292613983E0,1.845599771E0
4.282513005E1,2.527555704E0,3.283901215E0,1.942599773E0
4.283017432E1,2.748133659E0,3.308555603E0,2.071291447E0
4.283522849E1,2.876822948E0,3.290023804E0,2.217238426E0
4.284027328E1,2.909215450E0,3.194892883E0,2.385152578E0
4.284531802E1,2.917062283E0,3.080621719E0,2.526701450E0
4.285036281E1,2.871481180E0,2.980688095E0,2.694047451E0
4.285541552E1,2.882406712E0,2.928546906E0,2.915683746E0
4.286046073E1,2.892981529E0,2.991109848E0,3.129069805E0
4.286550589E1,2.659806728E0,3.230445862E0,3.324850559E0
4.287055104E1,2.236005068E0,3.675078392E0,3.475066662E0
4.287560261E1,1.784525275E0,4.348733902E0,3.365928411E0
4.288064813E1,1.176242828E0,5.141191483E0,3.061535120E0
4.288569360E1,5.830031633E-1,6.004506111E0,2.553963661E0
4.289073912E1,3.530649543E-1,6.579911232E0,1.983337045E0
4.289582912E1,5.192221403E-1,6.638198853E0,1.350020409E0
4.290091912E1,7.371597290E-1,6.180016518E0,5.774453878E-1
4.290600912E1,1.088793993E0,5.191635132E0,6.157413125E-2
4.291110755E1,1.474652410E0,4.046749115E0,-3.182777762E-1
4.291613375E1,1.718650103E0,3.147278786E0,-7.207090855E-1
4.292118599E1,1.720747709E0,2.502456665E0,-1.136918664E0
4.292623833E1,1.653050184E0,1.968476295E0,-1.500243783E0
4.293129068E1,1.615089893E0,1.530818939E0,-1.806215644E0
4.293628172E1,1.711565733E0,1.117621422E0,-2.030848503E0
4.294133094E1,1.785033703E0,7.671403885E-1,-2.202449560E0
4.294638021E1,1.831254840E0,4.649801254E-1,-2.296622753E0
4.295142943E1,1.798336506E0,1.920118332E-1,-2.359927893E0
4.295650807E1,1.606562853E0,1.522445679E-2,-2.573174477E0
4.296155880E1,1.304445505E0,-1.563253403E-1,-2.883203983E0
4.296660953E1,8.681808710E-1,-1.982870102E-1,-3.381182194E0
4.297166026E1,2.739873528E-1,-1.994609833E-2,-3.928894997E0
4.297669526E1,-2.870553136E-1,2.970924377E-1,-4.446507931E0
4.298174521E1,-9.255462885E-1,8.243503571E-1,-4.854191303E0
4.298679516E1,-1.776214600E0,1.446714401E0,-5.340213776E0
4.299184505E1,-2.447365761E0,1.924852371E0,-5.758083820E0
4.299675505E1,-3.069907188E0,2.268369675E0,-5.832165241E0
4.300176719E1,-3.676243782E0,2.463095665E0,-5.932147026E0
4.300680870E1,-4.348798275E0,2.652610779E0,-5.891465664E0
4.301185016E1,-4.926273823E0,2.612095833E0,-5.671914577E0
4.301691271E1,-5.256412506E0,2.365747452E0,-5.273365498E0
4.302195521E1,-5.435703754E0,1.961707115E0,-4.718264103E0
4.302699781E1,-5.507298470E0,1.491115570E0,-4.139252663E0
4.303204031E1,-5.356456757E0,1.078486443E0,-3.481753826E0
4.303709969E1,-5.116804600E0,6.999340057E-1,-2.920746326E0
4.304214307E1,-4.783246517E0,3.841695786E-1,-2.372994900E0
4.304718641E1,-4.531806946E0,8.814716339E-2,-1.904384136E0
4.305222979E1,-4.371228218E0,-1.881122589E-1,-1.552013397E0
4.305728667E1,-4.138446808E0,-5.020246506E-1,-1.330079317E0
4.306233073E1,-4.029892445E0,-8.296823502E-1,-1.190694928E0
4.306737479E1,-3.930958033E0,-1.171126366E0,-1.038683176E0
4.307241886E1,-3.665292025E0,-1.540768623E0,-9.319083095E-1
4.307747370E1,-3.362379551E0,-1.819049835E0,-8.662367463E-1
4.308251828E1,-3.046420574E0,-2.073079109E0,-8.277603388E-1
4.308756292E1,-2.794064045E0,-2.259872437E0,-7.978743911E-1
4.309260750E1,-2.433168888E0,-2.494315147E0,-7.530275583E-1
4.309766073E1,-1.963785172E0,-2.738086700E0,-6.838859916E-1
4.310270578E1,-1.649080873E0,-2.948143959E0,-5.041937232E-1
4.310775083E1,-1.398177385E0,-3.086298943E0,-3.475846946E-1
4.311279583E1,-1.091537476E0,-3.272225857E0,-2.807575464E-1
4.311788583E1,-7.768951654E-1,-3.462813854E0,-1.887523681E-1
4.312297583E1,-4.686169624E-1,-3.615025043E0,-8.105792105E-2
4.312806583E1,-1.427801847E-1,-3.748043537E0,-4.409863055E-2
4.313316458E1,1.480020285E-1,-3.861895084E0,-1.117032319E-1
4.313819177E1,4.420239329E-1,-3.994862080E0,-9.308491647E-2
4.314324380E1,7.636688948E-1,-4.070342541E0,6.076090038E-3
4.314829583E1,1.055755138E0,-4.064465046E0,-6.345748156E-2
4.315334787E1,1.395074129E0,-4.072939396E0,-7.777161896E-2
4.315837906E1,1.810745716E0,-3.995241642E0,2.157522142E-1
4.316343005E1,2.231709003E0,-3.836155415E0,3.956742585E-1
4.316848104E1,2.639632225E0,-3.734360218E0,7.875732183E-1
4.317353198E1,2.805468559E0,-3.637101650E0,1.013850451E0
4.317856625E1,2.825285673E0,-3.472601414E0,1.299562931E0
4.318361636E1,2.803971291E0,-3.288808346E0,1.649687529E0
4.318866651E1,2.831788063E0,-3.162337780E0,1.897415280E0
4.319371662E1,2.903770924E0,-3.160088062E0,2.120163441E0
4.319875339E1,2.862317562E0,-3.229277134E0,2.404983521E0
4.320380287E1,2.693327904E0,-3.240708828E0,2.547224998E0
4.320885229E1,2.334581614E0,-3.204087734E0,2.538558960E0
4.321390177E1,1.929184914E0,-3.172212124E0,2.298866987E0
4.321894063E1,1.472084165E0,-3.245593548E0,2.001130104E0
4.322398953E1,1.082522869E0,-3.323744297E0,1.635939002E0
4.322903844E1,8.558429480E-1,-3.401932240E0,1.260878205E0
4.323408735E1,6.773812175E-1,-3.484899044E0,8.566253185E-1
4.323899734E1,4.990029335E-1,-3.534419537E0,6.288040280E-1
4.324401172E1,2.217725515E-1,-3.526399136E0,4.145195484E-1
4.324905234E1,-2.022485733E-1,-3.499187946E0,1.227608323E-1
4.325409307E1,-7.495883703E-1,-3.481562138E0,-1.225329936E-1
4.325915797E1,-1.238636136E0,-3.449592113E0,-3.604681790E-1
4.326419985E1,-1.799471498E0,-3.432075024E0,-5.012733936E-1
4.326924177E1,-2.485635042E0,-3.433922291E0,-5.456192493E-1
4.327428365E1,-3.063547134E0,-3.431333065E0,-4.177306294E-1
4.327934495E1,-3.596511364E0,-3.371885777E0,-2.806753814E-1
4.328438781E1,-3.975692272E0,-3.308475971E0,-4.343920946E-2
4.328943068E1,-4.168076515E0,-3.198141575E0,4.086095691E-1
4.329447354E1,-4.030609131E0,-3.031447887E0,9.371232390E-1
4.329953193E1,-3.501262188E0,-2.822796822E0,1.451817751E0
4.330457563E1,-2.818756580E0,-2.615128517E0,1.847510695E0
4.330961927E1,-2.197312832E0,-2.350846291E0,1.995452881E0
4.331466292E1,-1.703354955E0,-1.977301598E0,2.072174072E0
4.331971891E1,-1.403573275E0,-1.580658913E0,2.110248566E0
4.332476323E1,-1.068107724E0,-1.151338577E0,2.190176725E0
4.332980750E1,-8.355687857E-1,-6.606407166E-1,2.239326000E0
4.333485177E1,-6.771433353E-1,-1.564483643E-1,2.266778469E0
4.333990594E1,-4.876648188E-1,3.851280212E-1,2.391616821E0
4.334495073E1,-2.337881327E-1,8.588333130E-1,2.488962412E0
4.334999547E1,5.096864700E-2,1.341299057E0,2.658986807E0
4.335504026E1,3.909802437E-1,1.846967697E0,2.848749399E0
4.336009297E1,7.053862214E-1,2.294612885E0,3.019948483E0
4.336513813E1,1.028308988E0,2.751373291E0,3.182265043E0
4.337018328E1,1.374365687E0,3.145559311E0,3.326458216E0
4.337522849E1,1.763136148E0,3.491685867E0,3.481330633E0
4.338031849E1,2.324182034E0,3.770775795E0,3.637224197E0
4.338540849E1,2.886204481E0,3.954373360E0,3.904583454E0
4.339049849E1,3.411991835E0,4.128794670E0,4.356008530E0
4.339559719E1,3.902590275E0,4.107598305E0,4.758437157E0
4.340050719E1,4.106514931E0,3.828937531E0,5.048111916E0
4.340551162E1,3.832367182E0,3.455614090E0,5.029263496E0
4.341055589E1,3.128340244E0,3.102381706E0,4.708350658E0
4.341560016E1,2.447985411E0,2.759455681E0,4.195570469E0
4.342065432E1,1.881022930E0,2.479338646E0,3.757593155E0
4.342569912E1,1.364486694E0,2.290641785E0,3.426263332E0
4.343074386E1,9.313002825E-1,2.178926468E0,3.204737186E0
4.343578865E1,5.613626838E-1,2.034048080E0,3.139886379E0
4.344087865E1,3.300106525E-1,1.827296257E0,3.120335340E0
4.344596865E1,2.362201214E-1,1.678288460E0,3.202296734E0
4.345105865E1,2.794282436E-1,1.582191467E0,3.274996042E0
4.345615750E1,5.645346045E-1,1.758974075E0,3.098972559E0
4.346118537E1,9.299269915E-1,2.371124268E0,2.702933550E0
4.346623724E1,1.095743418E0,3.289406776E0,2.774836779E0
4.347128906E1,8.055808544E-1,4.408377647E0,3.262941837E0
4.347634094E1,2.413642406E-1,5.311422348E0,3.735064507E0
4.348137261E1,-1.918351650E-2,6.036549568E0,4.070885181E0
4.348642344E1,4.202306271E-2,6.267970085E0,4.024423122E0
4.349147432E1,1.332836151E-1,5.986948013E0,3.669991016E0
4.349652510E1,1.022428274E-1,5.409291267E0,3.376816750E0
4.350143510E1,-1.704221964E-1,4.449029922E0,3.060767651E0
4.350644526E1,-7.880842686E-1,3.316975594E0,2.437422752E0
4.351148750E1,-2.008143663E0,2.615687370E0,1.103688359E0
4.351652969E1,-3.997992516E0,1.780332565E0,-1.001864910E0
4.352161969E1,-6.456590176E0,8.592653275E-1,-3.575614929E0
4.352670969E1,-9.051134109E0,3.961181641E-2,-6.040683270E0
4.353179969E1,-1.132680416E1,-6.261205673E-1,-7.705845833E0
4.353688969E1,-1.278236294E1,-9.185676575E-1,-8.577457428E0
4.354179969E1,-1.281030178E1,-1.068129539E0,-8.775820732E0
4.354681958E1,-1.134536076E1,-1.027382851E0,-7.994860649E0
4.355186198E1,-9.059750557E0,-8.487844467E-1,-6.783712864E0
4.355690438E1,-7.345113754E0,-4.601821899E-1,-5.664740086E0
4.356196417E1,-6.536569118E0,2.293453217E-1,-4.777711868E0
4.356700745E1,-6.082387924E0,9.323730469E-1,-3.909005642E0
4.357205073E1,-5.854932785E0,1.739314079E0,-3.036947966E0
4.357709396E1,-5.493242741E0,2.467804909E0,-2.044537544E0
4.358215115E1,-4.947128296E0,3.002800941E0,-1.340990663E0
4.358719516E1,-4.451210499E0,3.516788483E0,-1.302530527E0
4.359223912E1,-4.043460846E0,4.010024071E0,-1.531380892E0
4.359728307E1,-3.541766167E0,4.215046883E0,-1.946894288E0
4.360233823E1,-2.830561638E0,4.156552315E0,-2.722317696E0
4.360738276E1,-2.272306919E0,3.940544128E0,-3.486174107E0
4.361242729E1,-1.660937786E0,3.548379898E0,-4.307892799E0
4.361747182E1,-9.913415313E-1,3.100088120E0,-5.004177094E0
4.362252526E1,-2.820135951E-1,2.638941765E0,-5.424961090E0
4.362757026E1,2.572562695E-1,2.165014267E0,-5.606331825E0
4.363261521E1,7.798483968E-1,1.702168465E0,-5.526511669E0
4.363766021E1,1.549299717E0,1.216835022E0,-5.374154568E0
4.364275021E1,2.355574846E0,7.998294830E-1,-5.154584408E0
4.364784021E1,2.995619535E0,4.510831833E-1,-4.906224251E0
4.365293021E1,3.595254421E0,7.477092743E-2,-4.762736797E0
4.365802891E1,4.093402386E0,-2.239589691E-1,-4.422083378E0
4.366305630E1,4.439261436E0,-4.357118607E-1,-4.027012825E0
4.366810828E1,4.689381599E0,-7.902793884E-1,-3.475654602E0
4.367316021E1,4.949751854E0,-1.115367889E0,-2.804967403E0
4.367821224E1,5.010219574E0,-1.458889961E0,-2.180817366E0
